t,posx,posy,posz,velx,vely,velz,accx,accy,accz,jerkx,jerky,jerkz,snapx,snapy,snapz
0.0,-3.9094104644953093e-17,-4.1804919913467392e-19,2.1713413014346667e-17,-2.2664634012642967e-17,-2.4235691429222455e-19,1.2588253868091878e-17,-1.1608764135510217e-17,-1.241318557971694e-19,6.447668432298192e-18,-4.841279410044911e-18,-5.1766419459793616e-20,2.688912425842331e-18,-1.3119807454204689e-18,-1.4028356843688264e-20,7.286907684976239e-19
0.010050251256281407,5.588333631505729e-09,2.765816505054981e-10,-3.1038217404927218e-09,2.751233550696499e-06,1.3657830362244807e-07,-1.5280652643360976e-06,0.0010806102608344507,5.388943092438166e-05,-0.0006001827810831499,0.3165650708273503,0.01590849792230472,-0.17582370951783052,60.9579147303282,3.111691742947926,-33.85669386817238
0.020100502512562814,1.7402451289710408e-07,8.744418971071087e-09,-9.665512156674357e-08,4.2599957050434254e-05,2.1537649390102224e-06,-2.3660482991165445e-05,0.00829572154055001,0.0004233400840578945,-0.004607534654958706,1.1977884834809245,0.062099784042911804,-0.6652648500763074,111.91098895884224,5.996868592897182,-62.156589680369166
0.03015075376884422,1.2856905386998646e-06,6.56018035616733e-08,-7.14086614847899e-07,0.00020862632556518078,1.0745247244721158e-05,-0.0001158733475177057,0.026849570980768907,0.001402772400651024,-0.014912545962393081,2.5458764274712062,0.13631237569133298,-1.4140076676245736,153.50307064384853,8.660785286808817,-85.25728764844904
0.04020100502512563,5.269743178282105e-06,2.730917560296481e-07,-2.9268731113963156e-06,0.0006375994827683149,3.3464188630019824e-05,-0.00035412974006887685,0.060991154234723774,0.0032640314830931784,-0.0338751554531795,4.269458044360329,0.2363378234912438,-2.3713037860692485,186.36205633326742,11.108687679966229,-103.50752839613357
0.05025125628140704,1.5638185423693186e-05,8.23243042768278e-07,-8.685619560412498e-06,0.0015046535852696523,8.04978988276593e-05,-0.000835701090489851,0.11407829000637817,0.006256922331652143,-0.06336033243323742,6.283424302404643,0.36002062164656806,-3.489882716485164,211.09989116463305,13.345812745975145,-117.24719295900717
0.06030150753768844,3.782899696706259e-05,2.0233624244837414e-06,-2.101063947675764e-05,0.0030146027236585262,0.00016444790600160096,-0.0016743433892151432,0.18864005706068404,0.01060974417501236,-0.10477275496434563,8.508766871197274,0.5052581182275615,-4.725862366326097,228.31256886509362,15.377388576763636,-126.80730278451719
0.07035175879396985,7.946469416608672e-05,4.319332654431271e-06,-4.4135561979297655e-05,0.005393878300575419,0.00030011542155612605,-0.0029958191186927547,0.28643760370497656,0.016529823894612057,-0.1590905841165092,10.872416996310701,0.6700004254568973,-6.038659548635517,238.58013175141107,17.20863438258213,-132.5100197319738
0.08040201005025126,0.000150532523915747,8.316770651861682e-06,-8.360741344196807e-05,0.008883072426126635,0.0005042921884927893,-0.004933755773481881,0.4085233297415052,0.024204048542779178,-0.2268983342729598,13.307084373939292,0.8522503299957481,-7.390900491257302,242.46667072996132,18.84476049200337,-134.66864607255033
0.09045226130653267,0.00026349232978484976,1.4800100183719431e-05,-0.00014634652752809396,0.013730070890956583,0.0007955567041616714,-0.007625831838242725,0.5552984408911027,0.033799396954666175,-0.3084188394877902,15.75109602554191,1.0500632032298733,-8.748331346046497,240.520325296734,20.290968351922455,-133.5876244892825
0.10050251256281408,0.0004333179627185462,2.4749593295173203e-05,-0.00024066954514838216,0.020183759277292122,0.0011940758082533793,-0.01121028109283693,0.7265688756879916,0.04546347045398363,-0.40354431589622225,18.148235172484444,1.261546911555701,-10.079728698080046,233.27328353733313,21.55245052755683,-129.56253807706932
0.11055276381909548,0.0006774779425505635,3.9356434637099966e-05,-0.00037627867365288745,0.02848828576827352,0.0017214116268782476,-0.01582270611375712,0.9215996048457239,0.05932502265253261,-0.5118665201775077,20.447580110682388,1.4848617266664121,-11.356810074867498,221.2417821269761,22.63439070244626,-122.88011034267252
0.12060301507537688,0.0010158609105114505,6.00358627461835e-05,-0.0005642202823371395,0.03887786421588656,0.0024003338635792,-0.021593191841104153,1.139167303094264,0.07549448834353606,-0.6327060040704645,22.603343085243406,1.7182202358380265,-12.554144455561795,204.92610633049424,23.541963678452877,-113.81820520471678
0.1306532663316583,0.0014706512468617096,8.84384422408282e-05,-0.0008168158191124999,0.051572101027810235,0.0032546374281247144,-0.02864371008033053,1.3776113934882037,0.09406451148876888,-0.7651404649416461,24.57470916510989,1.9598872522154862,-13.649062780169976,184.81059000233304,24.280335375761144,-102.64582699368965
0.1407035175879397,0.002066160061721255,0.0001264595208036286,-0.0011475679409607014,0.06677182943349465,0.004308965393928345,-0.037085805807968476,1.6348834641861174,0.11511047229948672,-0.9080321924061427,26.32567511770152,2.208179725098738,-14.621568458763896,161.36361558655193,24.854662832877857,-89.62312045194142
0.15075376884422112,0.002828616601109214,0.00017624692472867576,-0.0015710446585624103,0.08465543468978352,0.005588637274941265,-0.04701855615056131,1.9085950577010486,0.1386910134111539,-1.0600546110010185,27.824888283557843,2.461466650228821,-15.454247880691002,135.03761411682376,25.27009420663216,-75.00137073368586
0.16080402010050251,0.0037859249441506686,0.00024020694671952135,-0.0021027442032595395,0.10537565378639603,0.007119482612864283,-0.058526792906016575,2.196063832622145,0.16484856515197,-1.219717918911383,29.04548545098085,2.7181689800739495,-16.13218092378506,106.26906521643599,25.53176877217554,-59.02300340499872
0.1708542713567839,0.0049673907013494615,0.0003210086795311583,-0.002758943232280896,0.1290568332115821,0.008927679865525758,-0.07167957947659931,2.4943580978074142,0.1936098699051951,-1.385393822749092,29.9649317306775,2.976759534115596,-16.642851463576886,75.4784970982888,25.644816922981818,-41.92158444381901
0.18090452261306533,0.006403422257768821,0.00042158674895692095,-0.003556530895930684,0.15579262833826607,0.011039600587271884,-0.08652893308278428,2.8003397190476327,0.22498650556527428,-1.5553393683840882,30.564859430402297,3.2357629091345763,-16.97605788250502,43.07048656489782,25.61436017084716,-23.92182023994919
0.19095477386934673,0.008125210938904124,0.0005451424995687437,-0.004512831198209225,0.18564412799099314,0.013481658892215866,-0.1031087831271855,3.110705398201384,0.2589754080877607,-1.7277198678283714,30.830906929599895,3.4937553894971334,-17.12382357912662,9.433659008391515,25.445511145890066,-5.239557595053547
0.20100502512562815,0.010164394310974573,0.0006951436865267577,-0.005645415990105124,0.21863838775399302,0.01628016619119225,-0.12143415657778146,3.422026324801227,0.2955593931330372,-1.9006309221726014,30.7525575540476,3.749364857441024,-17.080307477328027,-25.05931158948728,25.143373596551417,13.918216277339532
0.21105527638190955,0.01255270666130335,0.0008753227266817469,-0.006971910842568093,0.25476735558067504,0.019461191193263096,-0.14150058123965473,3.730786200131016,0.33470767680383706,-2.072119540575338,30.322978450498027,4.001270703361598,-16.841714535535598,-60.05170265738249,24.713042389594353,33.353373751839754
0.22110552763819097,0.015321620538398192,0.0010896735621015263,-0.008509795953941385,0.2939871732648702,0.023050425162622307,-0.16328369778446483,4.033417633774357,0.37637639547656454,-2.240204355304918,29.538859461321472,4.2482037360978895,-16.406206255926374,-95.20274303432313,24.159603510104454,52.87664679119358
0.23115577889447236,0.01850198306528691,0.0013424471890598347,-0.010276204154402788,0.33621783733413363,0.02707305242174454,-0.18673907140687188,4.326336912634169,0.4205091247264117,-2.40289493283395,28.400251999148765,4.488946093218696,-15.773811193638966,-130.18761296972608,23.48813406148955,72.30762694628474
0.24120603015075376,0.02212365057360514,0.001638145905433889,-0.012287717977732966,0.38134320292542107,0.03155362609162525,-0.21180219397713057,4.605977142423441,0.4670373973462769,-2.558210180986466,26.91040792151361,4.7223311513086585,-14.946335465984077,-164.69744412339156,22.703702265479883,91.47476535613364
0.25125628140703515,0.026215124939876017,0.0019815163293642846,-0.01456016767849986,0.42921131420345915,0.036515949059958364,-0.23838866755907265,4.868819761627072,0.5158812204594806,-2.7041958521376923,25.075618405495142,4.947243436254361,-13.927273261655394,-198.43931956550824,21.811367462128004,110.2153727478983
0.2613065326633166,0.03080319483936386,0.00237754124193844,-0.017108431980517595,0.4796350448821142,0.04198296016809768,-0.26639456016269614,5.111424427934867,0.5669495917262795,-2.838941142466441,22.905052822360783,5.1626185335304,-12.721717349940358,-231.1362737766505,20.816180109808762,128.37561943687348
0.271356783919598,0.03591258496682707,0.002831430306566377,-0.019946243250208533,0.5323930324090852,0.04797662560764907,-0.29569692460058,5.330457277145691,0.6201410146441811,-2.9605943872601808,20.410597612208246,5.367442998485467,-11.336269589930563,-262.52729264777764,19.723181785219477,145.8105353264913
0.2814070351758794,0.04156561610743737,0.0033486097176251084,-0.02308599869626656,0.5872308893742271,0.0545178355175393,-0.32615447131734326,5.522717554542722,0.6753440129420566,-3.0673778522726862,17.606695158608844,5.560754266628455,-9.778951439733088,-292.36731348023625,18.53740518337963,162.38400990832147
0.2914572864321608,0.047781878775075635,0.003934710830855488,-0.026538579104790076,0.643862675701823,0.0616263057724083,-0.35760838606136636,5.685162618739858,0.7324376440680509,-3.1576016211343507,14.510182663249317,5.741640563914508,-8.059114465680606,-320.42722498575876,17.26387411763122,177.96879226206835
0.30150753768844224,0.0545779229691569,0.004595557827902908,-0.0303131765268227,0.7019726151871176,0.0693204849531714,-0.389883283267993,5.814931317999285,0.7912920117712943,-3.229676578815142,11.14013102057499,5.909240817031145,-6.1873508515426145,-346.4938672864639,15.907603519638464,192.4464910555779
0.31155778894472363,0.06196696643507911,0.005337154467300732,-0.03441713224300936,0.7612170399374306,0.07761746649059749,-0.42278828602343344,5.909365739020146,0.8517687777774109,-3.2821264911401595,7.51768369243181,6.062744563684304,-4.175403907735788,-370.3700319148551,14.47359943938797,205.70757454482884
0.32160804020100503,0.06995862364733431,0.006165669974102962,-0.03885578623784624,0.8212265462781574,0.08653290597275008,-0.4561182234785828,5.96603132819836,0.9137216725578259,-3.313599180357854,3.6658955827095525,6.201391862884457,-2.0360785805350936,-391.8744618138236,12.96685904518869,217.65137057393935
0.3316582914572864,0.07855865756826187,0.007087424120280125,-0.04363233932377191,0.8816083456839794,0.09608094360713779,-0.48965493658197934,5.982735385357552,0.976997005192873,-3.322876796760866,-0.3904280880162787,6.324473205232691,0.2168480387158418,-410.8418513366465,11.392370623671866,228.18606657516432
0.3417085427135678,0.08776875606936663,0.008108871547899906,-0.048747728963117264,0.9419487942955912,0.10627413182841973,-0.5231686830011154,5.9575439299512265,1.0414341723287008,-3.30888518635952,-4.624892907841627,6.431329423206763,2.5687162043937732,-427.12284624698736,9.755113579791157,237.22870956889562
0.35175879396984927,0.09758633473606776,0.009236585387021611,-0.054200519743702005,1.0018160845822672,0.11712336804251385,-0.5564196321013244,5.888796939735905,1.1068661662279755,-3.270702354607894,-9.009676398891116,6.52135160144722,5.004073007385202,-440.5840437188939,8.060058436822535,244.70520616366116
0.36180904522613067,0.108004367610686,0.01047724022014109,-0.05998680937163476,1.0607630827105745,0.12863783249795305,-0.5891594408514574,5.775121961915561,1.1731200819143839,-3.2075660261826093,-13.51568914267554,6.593980987043468,7.506761865875525,-451.1079923368013,6.312166836364287,250.55032255612844
0.37185929648241206,0.11901124726242054,0.011837594444930308,-0.06610015095264503,1.1183302951795473,0.140824931275337,-0.6211329015255703,5.615446096757095,1.2400176234109392,-3.1188803008141956,-18.11273590544984,6.648708899819851,10.060012016138344,-458.5931920955295,4.516391538337042,254.70768453109963
0.38190954773869346,0.13059067540700667,0.013324472086923148,-0.07253149224104227,1.1740489482826464,0.15369024438572426,-0.6520796520698435,5.409006353676987,1.3073756090720756,-3.0042214051710623,-22.769676763569606,6.685076642621758,12.64652800332479,-462.9540944002888,2.6776764209837998,257.129777461516
0.3919597989949749,0.14272158513269326,0.014944744113706845,-0.07926913244317119,1.2274441639568117,0.16723747896881389,-0.6817359400039498,5.155358379799019,1.3750064760095542,-2.863342540796202,-27.45458822884916,6.702675411601663,15.248579172252818,-464.12110206666944,0.8009564808699489,257.7779463084528
0.4020100502512563,0.15537809562311483,0.0167053093020857,-0.08629869706999929,1.278038215578909,0.18146842758175966,-0.7098364307260789,4.854383560983328,1.4427187836121582,-2.6961778280964586,-32.13492437391966,6.7011462065052685,17.848089158196288,-462.04056932065146,-1.1088421671169355,256.6223956211271
0.4120603015075377,0.16852950010158224,0.01861307470959147,-0.0936031312412433,1.3253538472699193,0.19638293156946665,-0.7361160510908618,4.506294495326296,1.510317716159189,-2.5028453463843814,-36.77767795758399,6.6801797409575325,20.426725377674487,-456.674801798604,-3.046802289766825,253.64218953688896
0.4221105527638191,0.18214028755525216,0.02067493580162224,-0.10116271175121118,1.368917640267148,0.21197884950721346,-0.7603118591293836,4.111638839131901,1.5776055845277657,-2.2836492699728534,-41.34954155017755,6.639516352748786,22.96598851924101,-448.0020565472755,-5.008015535547335,248.8252517812282
0.4321608040201005,0.19617019863158508,0.022897756285399282,-0.10895507811430705,1.408263409924793,0.22825203070645006,-0.7821649307805338,3.6713015253539005,1.644382326993921,-2.039081100322223,-45.817068658923574,6.578945914120816,25.447302034273733,-436.01654202380496,-6.9875824346037545,242.16836566776874
0.44221105527638194,0.21057431593343598,0.025288347701838593,-0.11695528271591546,1.4429356169031744,0.24519629377461385,-0.8014222545028786,3.1865053545093502,1.7104460091274891,-1.769819994240141,-50.146834853290585,6.498307742052938,27.852101627762934,-420.7284180957113,-8.980612398759096,233.6771740982756
0.45226130653266333,0.22530318877307337,0.027853448826341932,-0.12513586010214856,1.472492776106955,0.26280341021981346,-0.817838624636311,2.65880995806317,1.7755933227808025,-1.4767321881339477,-54.30559889035078,6.397490508548093,30.161924749101757,-402.1637960409139,-10.982223721513964,223.36617956264809
0.4623115577889447,0.24030299227935756,0.030599704929419085,-0.13346691534971822,1.4965108469326378,0.2810630930912253,-0.8311785243826627,2.0901091342841163,1.8396200841711845,-1.1608695183158453,-58.26046384013699,6.27643215091892,32.3585000828746,-380.364738547702,-12.987543578046687,211.25874413892393
0.4723618090452261,0.2555157205862544,0.0335336469479611,-0.14191623136495332,1.5145865883856806,0.2999629906460497,-0.8412179892745217,1.4826265565711978,1.9023217310572387,-0.8234670373605688,-61.979038211000045,6.135119782073822,34.42383703964728,-355.38925971476056,-14.99170802521314,197.38708949327565
0.4824120603015075,0.27087941366480495,0.036661670617891454,-0.1504493948687611,1.5263408626275499,0.3194886850338726,-0.8477464420014602,0.8389098542522255,1.9634938190089346,-0.4659397265157281,-65.42959707496584,5.973589600803123,36.34031524675507,-327.3113250511569,-16.989862001546967,181.79229688001715
0.49246231155778897,0.2863284171946127,0.03999001561883,-0.15902994073209908,1.5314218705129816,0.3396236959892811,-0.8505684894628922,0.16182306585247375,2.0229325167715024,-0.08987830416478104,-68.58124319309445,5.7919268020650625,38.090774039092935,-296.22085147634516,-18.977159327259383,164.52430714159482
0.5025125628140703,0.301793674704847,0.043524744781311415,-0.16761951423429022,1.5295083026778347,0.3603494895235752,-0.8495056729168011,-0.5454625351647806,2.080435100723113,0.30295586965728205,-71.40406814083508,5.590265487271916,39.658601949904664,-262.22370732016407,-20.948762704239375,145.64192070859553
0.5125628140703518,0.3172030510487191,0.04727172340700863,-0.17617805072429255,1.5203123897377409,0.3816454916064274,-0.8443981620935037,-1.2794792421867172,2.1358004484263664,0.7106367926958548,-73.86931343338489,5.3687885745761115,41.02782620157126,-225.44171232284498,-22.899843716053542,125.2127975997405
0.5226130653266332,0.3324816861093107,0.05123659875231752,-0.18466397207278978,1.5035828351580593,0.4034891068283326,-0.8351063841437365,-2.036475344768874,2.18882953127358,1.1310807238556393,-75.94953165104619,5.127727709156291,42.183202196401965,-186.012637634999,-24.825582827946054,103.31345742189387
0.5326633165829145,0.3475523774685929,0.05542477972556884,-0.19303439921076215,1.479107614355176,0.4258557420346974,-0.821512578290224,-2.8124291854806813,2.2393259062258646,1.5620539905271578,-77.61874756458565,4.867363173503322,43.11030300742243,-144.0902058176198,-26.721169386838724,80.02927937004551
0.542713567839196,0.3623359906054023,0.05984141684803843,-0.20124537995793396,1.4467166235897446,0.448718834922413,-0.803522267051997,-3.6030648442815334,2.2870962066460145,2.001181699860723,-78.85261926058831,4.588023797706526,43.79560886916249,-99.84409084210256,-28.5818016213313,55.454502227336434
0.5527638190954774,0.37675189502210427,0.06449138252883659,-0.20925213125230346,1.406284162211966,0.4720498875897587,-0.7810656349106293,-4.403869450424061,2.331950632225183,2.445957353987545,-79.62859926681699,4.290086869739665,44.22659666844885,-53.45991809020961,-30.40268664170094,29.69222436503378
0.5628140703517588,0.3907184245335873,0.06937925170366357,-0.21700929479969486,1.3577312318193684,0.49581850503048625,-0.7540988052876503,-5.21011212188769,2.3737034380033553,2.8937533691885093,-79.92609567756926,3.9739780457470055,44.39182943519074,-5.139264354100305,-32.179040439902494,2.854403742548584
0.5728643216080402,0.4041533597861999,0.07450928288732642,-0.22447120507006263,1.3010276358872792,0.5199924385629225,-0.7226050067023468,-6.016864532339653,2.412173422483651,3.3418324990096693,-79.72663327903649,3.6401712603294873,44.28104583317264,44.90034216368167,-33.90608788956842,-24.938142092578346
0.5829145728643216,0.41697443090817665,0.07988539968981916,-0.2315921684750477,1.2361938634324279,0.5445376341849496,-0.6865956189791396,-6.819023105626073,2.4471844148403745,3.78736016132617,-79.01401467465871,3.289188636830739,43.885249650840535,96.42542185020375,-35.57906274600897,-53.55573600466141
0.592964824120603,0.429099838027032,0.08551117284567715,-0.23832675246904067,1.1633027402698684,0.5694182858456954,-0.6461110903738039,-7.611332837791551,2.478565761220909,4.227417669352299,-77.77448141048285,2.9216003976232168,43.196799292092805,149.1865436821572,-37.19320764621206,-82.85984126987933
0.6030150753768845,0.44044878722335146,0.09138980280622207,-0.24463008322379332,1.0824808314237284,0.594596893624792,-0.601221716487724,-8.388412746627239,2.5061528101413755,4.659016366600163,-75.99687510052286,2.5380247743942412,42.209497267069196,202.9183252258299,-38.74377410884312,-112.70306157627601
0.6130653266331658,0.45094203932436916,0.09752410294422408,-0.25045815043438274,0.9939095782517171,0.6200343268100418,-0.5520282718393785,-9.144782948747974,2.529787396976135,5.079112665784564,-73.67279855211132,2.139127918432054,40.918679682940024,257.3394326371508,-40.226022534245324,-142.92914102375926
0.6231155778894473,0.460502468774622,0.1039164834204125,-0.25576811772210034,0.8978261538442958,0.6456898918643409,-0.4986624849623418,-9.874893364198812,2.549318327541025,5.484623991676173,-70.7967768912647,1.7256238109120547,39.32130573469556,312.15258066162824,-41.63522220443954,-173.37296412409887
0.6331658291457286,0.46905562965496395,0.11056893576117607,-0.26051863700761124,0.7945240202581783,0.6715214052727043,-0.44128734789889723,-10.573154048589345,2.564601860770459,5.872445627901328,-67.3664186880319,1.2982741731826601,37.416047195934425,367.0445326344179,-42.96665128312428,-203.86055580092398
0.6432160804020101,0.4765303257551048,0.11748301819669979,-0.26467016513549624,0.6843531711449913,0.6974852712602407,-0.3800972509587055,-11.233967152757913,2.5755021904882853,6.2394684676899175,-63.382577081859836,0.8578883770515748,35.203377909654705,421.68610048025766,-44.21559681567556,-234.20908138973118
0.6532663316582915,0.48285918143886897,0.1246598418086948,-0.2681852809390628,0.5677200433351519,0.7235365643719254,-0.3153179336114089,-11.851760509964606,2.5818919262724553,6.5825976685699175,-58.84951090694494,0.40532335507183936,32.68566327904068,475.7321447135273,-45.37735472914727,-264.22684663787913
0.6633165829145728,0.4879792098751914,0.13210005753678236,-0.27102900084207737,0.4450870809372276,0.7496291169050086,-0.2472062423827861,-12.421022850611308,2.5836525734134987,6.898772211009884,-53.77504581759513,-0.05851648917224783,29.867249758255298,528.8215744382051,-46.44722983227097,-293.7132977045858
0.6733668341708543,0.4918323750419473,0.13980384409250424,-0.2731690910018466,0.3169719355134113,0.7757156111849202,-0.17604968662329412,-12.936340644493868,2.5806750119667865,7.184985361008387,-48.17073541358491,-0.5326793707787731,26.754554343226687,580.5773473478876,-47.42053581545563,-322.459021160932
0.6834170854271356,0.4943661437435398,0.1477708968298357,-0.27457637390583245,0.18394628589094353,0.8017476766755045,-0.10216578301854184,-13.392436570580657,2.5728599748985967,7.4383060366309905,-42.05202236551031,-1.016166213242357,23.35615406243801,630.6064697257825,-48.29259525078815,-350.2457439898735
0.6934673366834171,0.49553402371716837,0.15600041762098774,-0.27522502724177644,0.04663426117037517,0.8276759919144394,-0.025901179710668742,-13.78420961432002,2.560118525325975,7.655901078495049,-35.438399540153114,-1.5079307381679554,19.68287546771785,678.4999964447125,-49.058739592032744,-376.8463335862143
0.7035175879396985,0.495296083736656,0.16449110578619114,-0.27509287276905825,-0.09428954950976731,0.8534503912646815,0.052369449100055476,-14.106776792478797,2.542372532850404,7.835058424200668,-28.35357112582915,-2.0068795549847556,15.747884125027213,723.8330309671164,-49.71430917463189,-402.0247977566214
0.7135678391959799,0.49361945145657593,0.17324115012606175,-0.27416165282678584,-0.2381025168905353,0.8790199764727837,0.1322447472040622,-14.355516505505875,2.5195551489852632,7.973211186710131,-20.8256137577564,-2.5118722506602396,11.566774105252989,766.1647253450537,-50.254653215704906,-425.5362847196393
0.7236180904522613,0.49047878457350524,0.18224822210505837,-0.2724172920219208,-0.3840368376332677,0.9043332330249391,0.21329826821284215,-14.526113517429394,2.4916112816770877,8.067962636674878,-12.88713764340082,-3.0217214794138654,7.157657474992675,805.0382802201711,-50.6751298140497,-447.1270831056536
0.7336683417085427,0.4858567107150198,0.19150947023444376,-0.26985014154843356,-0.5312828629222537,0.9293381512915899,0.29508032430134534,-14.61460556327836,2.4584980689206493,8.117112088707785,-4.575447687846008,-3.5351930524312505,2.5412537873453402,839.9809448237684,-50.97110595014089,-466.5346219569401
0.7437185929648241,0.4797442313010616,0.20102151570307694,-0.2664552034963452,-0.6789929060690341,0.9539823524514448,0.3771201009931673,-14.617431584036467,2.4201853514677625,8.118681691606696,4.067295380860287,-4.051006027577835,-2.259020427298765,870.5040169767235,-51.137957486131555,-483.48747072761034
0.7537688442211056,0.47214108445626835,0.2107804493042645,-0.2622323324172142,-0.8262855455588252,0.9782132191857627,0.4589280471196382,-14.531481589122052,2.376656144630013,8.070944122520672,12.993913886341034,-4.56783279911294,-7.216962170467923,896.1028430895531,-51.17106916585192,-497.70533928365694
0.7638190954773869,0.4630560618858004,0.22078182970680832,-0.2571864113204323,-0.9722504399776497,1.0019780311337483,0.5399985490831796,-14.35414814639961,2.327907109175149,7.972451185066916,22.15205207854069,-5.084299187403705,-12.303492484823437,916.256818162361,-51.065834614810015,-508.89907790292455
0.7738693467336684,0.45250727446105543,0.23102068311830107,-0.25132749918244546,-1.1159536712609324,1.025224105099883,0.6198128985560452,-14.083379499718035,2.2739490213173856,7.822063311394459,31.484015008354163,-5.598984528638955,-17.486566963363884,930.4293857849079,-50.81765634019157,-516.7706772751353
0.7839195979899498,0.440522361095689,0.2414915043886135,-0.24467094695878577,-1.2564436327023998,1.047898940004071,0.6978425627451514,-13.717734313978099,2.2148072418014255,7.618979968193912,40.92660740228712,-6.110421764543052,-22.73108625864552,938.0680381365128,-50.42194573085994,-521.0132685018507
0.7939698492462312,0.42713863532633933,0.2521882596014438,-0.23723747899661918,-1.3927574781634036,1.0699503665654289,0.7735527663533475,-13.256438047729944,2.150522184080341,7.362770966656058,50.410972537077214,-6.617097532089925,-27.9988065919797,938.6043159861802,-49.8741230573562,-521.311123096526
0.8040201005025126,0.41240316384622666,0.263104390201691,-0.2290532366531548,-1.5239281489221952,1.0913267017105632,0.8464063943688345,-12.699440953299131,2.0811497815871918,7.053408676376932,59.86243111436306,-7.117452253216877,-33.24825026265853,931.4538086924331,-49.16961747189917,-517.3396529844413
0.8140703517587939,0.39637277107398194,0.274232818706331,-0.22014978083322578,-1.648991994603179,1.1119769076971864,0.9158682248125061,-12.047477704439189,2.0067619541004955,6.691301143210524,69.20032013530181,-7.609880224538662,-38.434616157153414,916.0161542034875,-48.303867008385126,-508.7654105027759
0.8241206030150754,0.3791139636737082,0.2855659560463787,-0.2105640500669157,-1.766997004624983,1.131850755943932,0.9814095005744932,-11.302128651517819,1.9274470732034716,6.277326111070238,78.33783177523128,-8.092729707061197,-43.50969025833501,891.6750390571542,-47.272318582387896,-495.2460884005486
0.8341708542713568,0.36070276877658536,0.29709571058742623,-0.20033827065604193,-1.8770116666083396,1.1508989955571687,1.0425128494712226,-10.465882704224555,1.843310426837134,5.812865947672947,87.18185225828711,-8.564303015895732,-48.4217561546734,857.7981983808604,-46.07042799115919,-476.430519838661
0.8442211055276382,0.34122447948783474,0.3088134988761552,-0.1895198153259683,-1.9781344681820343,1.1690735265457401,1.0986775616520106,-9.542201841818837,1.7544746829470177,5.299843474238628,95.63280073208625,-9.022856609972312,-53.11550554946143,813.7374158915991,-44.69365991362869,-451.95867838984486
0.8542713567839196,0.32077330109736124,0.3207102581601345,-0.1781610067270707,-2.069504058627743,1.1863275777143847,1.1494252334886426,-8.535587250892036,1.6610803522239965,4.740758699127468,103.58446814231957,-9.466601181754358,-57.53194877001533,758.8285238960598,-43.13748791040287,-421.4616780387332
0.864321608040201,0.29945189124552307,0.3327764607281049,-0.16631886203781399,-2.1503100868026337,1.2026158892267527,1.1943057870758764,-7.451647090671713,1.5632862499385745,4.138726455434039,110.92385610743804,-9.893701746951958,-61.60832527688899,692.3914032904577,-41.39739442376667,-384.5617731818056
0.8743718592964824,0.27737078713049534,0.34500213011789016,-0.1540547748294374,-2.219804731780414,1.2178948998288381,1.23290387447598,-6.297165885848358,1.4612699568691963,3.497514942520411,117.53101579326994,-10.302277734236107,-65.27801417308956,613.7299835607118,-39.4688707776822,-340.8723586273918
0.8844221105527639,0.2546477126764888,0.35737685923894125,-0.14143413025955986,-2.2773149426489283,1.232122938723659,1.2648456758365114,-5.0801755469287855,1.3552282793243187,2.8215851715040117,123.27888678767067,-10.690403074952748,-68.4704447132749,522.1322427823034,-37.34741717778974,-289.9979695957045
0.8944723618090452,0.23140675841713687,0.36988983045647295,-0.12852584957043156,-2.3222554039056718,1.2452604220880712,1.2898061005129762,-3.8100280181258768,1.2453777082581647,2.1161313146859584,128.03313597516717,-11.056106292836134,-71.11100681298285,416.8702076202899,-35.028542711406566,-231.53428171880296
0.9045226130653267,0.20777742668116872,0.382529837684015,-0.11540185977462869,-2.3541422428899637,1.2572700542225201,1.3075164003271027,-2.4974695527710082,1.1319548774804493,1.3871219589325392,131.6519964115996,-11.3973705937234,-73.12096155782456,297.1999533294147,-32.50776534752829,-165.06811104061126
0.914572864321608,0.1838935345024879,0.3952853105311469,-0.10213648431927247,-2.372607495691767,1.2681170333246077,1.317772204090602,-1.154716616253154,1.0152170209597964,0.6413422630001833,133.986106198754,-11.712133955268094,-74.41735171270557,162.36160375402687,-29.78061193682751,-90.17741401694366
0.9246231155778895,0.15989196651018744,0.4081443405530629,-0.088805750427424,-2.377414347976554,1.2777692618772982,1.320441982527072,0.2044665835003343,0.895442429220935,-0.11356298118994346,134.87834735903016,-11.998289216654136,-74.91291223103599,11.57933132803737,-26.842618211655054,-6.43128751543918
0.9346733668341709,0.13591126988755775,0.4210947096485402,-0.07548660872303437,-2.3684731671660018,1.2861975616426353,1.3154759527200355,1.564688938031395,0.7729309048357857,-0.8690453833313541,134.16368471004898,-12.253684168309942,-74.51598076393202,-155.93864292497892,-23.68932878603915,86.61003118437657
0.9447236180904522,0.11209008332435033,0.4341239206527808,-0.062256060653680834,-2.345858342414431,1.293375893251794,1.3029154312211517,2.908851652816338,0.6480042170082825,-1.6156080855635082,131.6690047393331,-12.476121641621997,-73.13040816944067,-341.0000493918633,-20.31629715568563,189.39516439112776
0.9547738693467337,0.08856539171912203,0.4472192301715144,-0.04919018913322759,-2.3098259488212136,1.2992815803823072,1.2829026449468302,4.2180658342122115,0.5210065552529639,-2.3427599893564093,127.21295447891498,-12.663359598648944,-70.65546902174265,-544.428569869815,-16.71908569797802,302.38159400157383
0.964824120603015,0.06547059822313628,0.46036768370263986,-0.036363087733832344,-2.260832252316817,1.3038955385133593,1.2556910089950293,5.471568448860808,0.3923049821674798,-3.0389690784443246,120.60578037999403,-12.813111221835864,-66.98577212035343,-767.0638375664421,-12.893265671977915,426.0356615005803
0.9748743718592965,0.04293340505132903,0.473556153091616,-0.023845683665118855,-2.199553071664468,1.3072025082499419,1.221655880513083,6.646636655584189,0.26228988529877095,-3.691614837822044,111.64916718759378,-12.923045003727298,-62.01117099936346,-1009.7614370997399,-8.834417218423646,560.8325679612099
0.9849246231155779,0.021073494319239217,0.48677137636669127,-0.01170444968565576,-2.126904014016077,1.3091912932067267,1.1813057977470578,7.718500509728983,0.1313754281031443,-4.286939768778893,100.13607681517897,-12.990784836682124,-55.61667443661463,-1273.392904498076,-4.5381293597321815,707.2563740446203
0.9949748743718593,-2.5579538487363607e-13,0.4999999999999998,7.815970093361102e-14,-2.044061600461532,1.3098550024425484,1.135294213403597,8.660254039996289,8.43769498715119e-15,-4.809999999999491,85.85058721931455,-13.013910102586884,-47.68235696293323,-1558.8457272002051,2.3732127374387346e-12,865.800000000112
1.0050251256281406,3.8086442528522886e-17,0.5,-2.115374530023028e-17,-2.0440616004597096,1.3098550024425577,1.1352942134028794,8.660254039999545,4.303643918443654e-20,-4.809999999999726,85.8505872193343,-13.013910102586825,-47.68235696293796,-1558.8457272002045,2.2731368213552895e-12,865.8000000001146
1.015075376884422,-0.020191201402430515,0.5132286236333089,0.011214414530695202,-1.952467121021699,1.3091912932067373,1.084421635755396,9.44997739198753,-0.13137542810312894,-5.248621004131643,70.71716207315136,-12.990784836682034,-39.277086792232886,-1438.5427367522727,4.538129359735759,798.9824007262553
1.0251256281407035,-0.039419465909907817,0.5264438469083842,0.02189400335727919,-1.853647257096038,1.3072025082499514,1.0295360003817686,10.092876854356128,-0.26228988529876796,-5.6056944109520535,56.769796234600264,-12.923045003727177,-31.530566958799565,-1323.978322384683,8.834417218426234,735.3520694954527
1.035175879396985,-0.05761909883853295,0.5396323162973599,0.03200227893237813,-1.7490255498167846,1.3038955385133704,0.9714279576281853,10.600642882432323,-0.39230498216746845,-5.887713227463188,43.951358784418936,-12.813111221835687,-24.41106632399226,-1214.9876245904954,12.893265671979478,674.8174415308862
1.0452261306532664,-0.07473819805880316,0.5527807698284857,0.04151041424447998,-1.639910341233918,1.2992815803823166,0.9108241750070939,10.984397224075167,-0.5210065552529486,-6.10085459430722,32.206372819379474,-12.663359598648837,-17.887772407796685,-1111.4080077018778,16.719085697978944,617.2881872003467
1.0552763819095476,-0.0907375190980834,0.5658760793472195,0.050396612483410055,-1.5275004348352421,1.2933758932518027,0.8483904811130943,11.254709513458824,-0.6480042170082637,-6.250989002135221,21.480992989266937,-12.476121641621798,-11.930778912621818,-1013.0790598901057,20.316297155685724,562.6752120162355
1.065326633165829,-0.10558939657739048,0.5789052903514607,0.058645507994501085,-1.4128905896002688,1.2861975616426458,0.784734917080677,11.421613637956446,-0.7729309048357755,-6.343689381953827,11.722983033857965,-12.253684168309762,-6.511073247091737,-919.8425931655629,23.68932878603859,510.89065663556636
1.0753768844221105,-0.11927672031256913,0.5918556594469379,0.06624759759396578,-1.2970768498780025,1.2777692618773075,0.7204106968567511,11.494623878124818,-0.8954424292209208,-6.384240069449586,2.8816933198995067,-11.998289216653998,-1.6005240498373827,-831.5426433777409,26.842618211653967,461.8478968599629
1.085427135678392,-0.1317919644330912,0.6047146894688538,0.07319870133083818,-1.1809617133805272,1.2681170333246172,0.6559190775609204,11.482750820789821,-1.0152170209597768,-6.377645643291008,-5.091961621912408,-11.712133955267932,2.828131286711599,-748.0254702152391,29.78061193682592,415.46154363566063
1.0954773869346734,-0.14313626789486025,0.6174701623159858,0.07949945179370864,-1.065359139584316,1.2572700542225312,0.5917121412064552,11.394517045232671,-1.1319548774804298,-6.328639637408318,-12.245525559954,-11.397370593723261,6.801299092535083,-669.1395572057645,32.507765347526195,371.64744305350615
1.105527638190955,-0.15331856478655145,0.6301101695435279,0.08515481107333459,-0.950999400831169,1.245260422088082,0.528195489054916,11.237972582476958,-1.245377708258136,-6.241693127250867,-18.625023024695093,-11.056106292836015,10.344541896230647,-594.735611716132,35.02854271140421,330.322676348957
1.1155778894472361,-0.16235476285217215,0.6426231407610598,0.09017361450506767,-0.8385337784206931,1.23212293872367,0.4657308498773808,11.020710147676496,-1.3552282793242882,-6.121023190022308,-24.27498177172029,-10.690403074952641,13.482590901221727,-524.6665649522645,37.347417177787,291.4055599020819
1.1256281407035176,-0.1702669686756744,0.6549978698821111,0.09456814032789705,-0.7285391059862322,1.217894899828849,0.4046386033952255,10.749880145603935,-1.4612699568691774,-5.970601238893375,-29.23845524475034,-10.302277734236096,16.23935846196586,-458.78757195919326,39.46887077767929,254.81564523756074
1.135678391959799,-0.17708275799660403,0.667223539271896,0.09835370440976414,-0.6215221624461629,1.2026158892267644,0.3452002201734166,10.432205449240204,-1.5632862499385511,-5.7941612311924535,-33.55704503866346,-9.893701746951928,18.637950560162867,-396.9560116210556,41.39739442376346,220.47371902468478
1.1457286432160805,-0.18283448964892132,0.679289741839867,0.10154827920166515,-0.517923916822463,1.1863275777143951,0.2876606192392619,10.073995951464717,-1.6610803522239777,-5.595207750573762,-37.270923362516484,-9.466601181754356,20.70067928096306,-339.0314866610989,43.13748791039954,188.30180307735614
1.155778894472362,-0.18755866163827714,0.6911865011238459,0.10417213609591376,-0.4181236272184669,1.169073526545751,0.23223044469957535,9.681162889846416,-1.754474682947001,-5.377023963163293,-40.41885550256635,-9.022856609972363,22.449075289175376,-284.8758236416768,44.69365991362521,158.22315435408836
1.1658291457286432,-0.19129530789618235,0.7029042894125755,0.10624751037679574,-0.3224427962477165,1.1508989955571802,0.17908826262920807,9.259232944535546,-1.843310426837102,-5.14267944768239,-43.03822228529122,-8.564303015895769,23.903900305475613,-234.35307296425157,46.07042799115586,130.16226495800566
1.1758793969849246,-0.1940874342726537,0.7144340439536229,0.10779828796470402,-0.23114898520582164,1.1318507559439426,0.12838267950389845,8.81336210925629,-1.9274470732034514,-4.895037899549092,-45.16504254041181,-8.092729707061329,25.085159582614644,-187.32950886939312,47.27231858238447,104.04486213684427
1.185929648241206,-0.19598049235207762,0.7257671812936708,0.1088497131677025,-0.14445948927723906,1.1119769076971993,0.08023438345039316,8.348349335400162,-2.0067619541004666,-4.636764708957101,-46.833995563912865,-7.6098802245388,26.012114381626596,-143.67362943677887,48.30386700838172,79.79790828295059
1.1959798994974875,-0.19702188970017448,0.7368956097983109,0.1094281166673235,-0.06254487606888053,1.0913267017105748,0.03473810958679092,7.868649949220205,-2.0811497815871673,-4.370334412932479,-48.07844358106409,-7.1174522532170466,26.70329444803701,-103.25615658519499,49.16961747189595,57.34960093328282
1.206030150753769,-0.19726053517310646,0.7478117403985581,0.10956066297826278,0.01446761023753572,1.0699503665654404,-0.008035469273935896,7.378388842125973,-2.1505221840803235,-4.098038021368046,-48.93045420944188,-6.617097532090103,27.176510488071074,-65.95003607253423,49.87412305735314,36.62937276940991
1.2160804020100502,-0.19674641794291353,0.7585084956113887,0.10927511663449395,0.08649077682248225,1.0478989400040826,-0.048037925284290496,6.8813734340793395,-2.214807241801414,-3.821990217035468,-49.420822921950176,-6.110421764543278,27.44886664486176,-31.63043749579801,50.42194573085693,17.567891617512455
1.2261306532663316,-0.19553021891662092,0.7689793168817014,0.10859962636718182,0.15347433996305457,1.025224105099895,-0.08524133031352138,6.38110641009105,-2.2739490213173728,-3.5441364295750115,-49.579095509842105,-5.5989845286392175,27.53677297465814,-0.17475429109562413,50.817656340188655,0.09706044838187822
1.236180904522613,-0.19366295324950475,0.779218170293194,0.10756252655263261,0.2154019102729304,1.0019780311337612,-0.11963658151685738,5.880798229818125,-2.3279071091751375,-3.2662597834630427,-49.433590545741005,-5.084299187404008,27.455957923033395,28.537396266355646,51.06583461480726,-15.849982622579443
1.2462311557788945,-0.1911956426761589,0.7892195506957382,0.10619215522137812,0.2722881031559403,0.978213219185776,-0.15123179644975335,5.3833794102620205,-2.376656144630002,-2.989987919957186,-49.011421846661825,-4.567832799113254,27.22148080109323,54.62417306223129,51.171069165849374,-30.338864335357446
1.256281407035176,-0.18817901640615375,0.7989784842969256,0.10451668793234592,0.32417577218134386,0.9539823524514567,-0.1800507764541995,4.891512581567601,-2.4201853514677563,-2.7167996930191896,-48.33852093703273,-4.051006027578156,26.84774426168383,78.20151114309974,51.137957486129274,-43.43397628532736
1.2663316582914572,-0.18466323935422768,0.8084905297655591,0.10256398682893031,0.37113336308889344,0.9293381512916024,-0.2061315370441417,4.407604315922881,-2.458498068920642,-2.448031739215464,-47.439659511715604,-3.5351930524316026,26.34850677560022,99.3831217164188,50.97110595013892,-55.198474923252974
1.2763819095477387,-0.1806976664981065,0.8177517778949446,0.1003614642066324,0.41325238613178195,0.9043332330249522,-0.22952490401704545,3.9338167295596103,-2.4916112816770917,-2.1848849215953914,-46.33847189902838,-3.0217214794142593,25.736895107794574,118.28049215054118,50.675129814047914,-65.69428155528715
1.2864321608040201,-0.1763306221801905,0.8267588498739413,0.09793595993479932,0.4506450044655619,0.879019976472796,-0.2502931740186816,3.472078857854597,-2.519555148985267,-1.9284306475471955,-45.05747752376521,-2.511872250660632,25.02541679358387,135.00288597471013,50.254653215703506,-74.98208234297167
1.2964824120603016,-0.1716092031925061,0.8355088942138122,0.09531363208784785,0.48344173629111165,0.8534503912646941,-0.26850883828814376,3.0240978035319226,-2.542372532850412,-1.6796170606316625,-43.618103370219,-2.0068795549851806,24.225972614858883,149.65734287906304,49.714309174630635,-83.12132830323685
1.306532663316583,-0.16657910450746424,0.8439995823790154,0.09251986015421827,0.5117892684597677,0.8276759919144522,-0.2842533683101793,2.591369657965745,-2.5601185253259895,-1.4392751063933997,-42.04070644520113,-1.5079307381683733,23.349869076291647,162.3486787146264,49.058739592031856,-90.1702353084016
1.3165829145728642,-0.16128446654012252,0.8522291031701675,0.08957916020416036,0.5358483792486666,0.8017476766755166,-0.2976160621018502,2.175190195584208,-2.572859974898618,-1.2081244721499675,-40.34459624106448,-1.0161662132427893,22.40783088154403,173.1794854933207,48.29259525078742,-96.18578408617472
1.3266331658291457,-0.1557677428507949,0.8601961559074992,0.08651511141031336,0.5557919680144388,0.7757156111849318,-0.3086929498606018,1.776665341373843,-2.5806750119668127,-0.9867794007585062,-38.54805719872352,-0.5326793707792097,21.410013409476026,182.25013138795973,47.42053581545524,-101.22372021965327
1.3366834170854272,-0.15006958722000563,0.8678999424632214,0.08335029332789846,0.5718031894332968,0.7496291169050202,-0.3175857577007637,1.396721411484942,-2.583652573413529,-0.7757543783602452,-36.66837117067598,-0.05851648917267767,20.366015190353526,189.658760732247,46.44722983227084,-105.33855414732214
1.3467336683417086,-0.1442287590509363,0.8753401581913088,0.08010623335419967,0.5840736900356344,0.7235365643719368,-0.324400928205535,1.0361151269377022,-2.5818919262724878,-0.5754696961025385,-34.72183988402413,0.4053233550713993,19.28489038205682,195.5012940207789,45.37735472914745,-108.58356116305667
1.35678391959799,-0.13828204607766087,0.8825169818033042,0.07680336379987214,0.5928019447432133,0.6974852712602524,-0.32924869652151423,0.6954434004291103,-2.5755021904883204,-0.38625688583880413,-32.72380740349622,0.8578883770511682,18.17516124628903,199.87142790904582,44.215596815675966,-111.0107814161205
1.3668341708542713,-0.13226420338061703,0.889431064238828,0.07346098801746567,0.5981916911170313,0.6715214052727152,-0.332242220722804,0.37515289624066683,-2.5646018607705,-0.2083640298058515,-30.688682594467437,1.2982741731822403,17.044830624783437,202.86063521342808,42.96665128312492,-112.67101991116621
1.3768844221105527,-0.1262079077339154,0.8960835165795917,0.07009725504542012,0.6004504590239592,0.6456898918643512,-0.33349676517174615,0.07554936324686046,-2.5493183275410694,-0.04196094427924568,-28.629961585981434,1.7256238109116402,15.901394415512918,204.5581649111981,41.63522220444049,-113.61384650823464
1.3869346733668342,-0.12014372633223236,0.9024758970557802,0.06672914223863945,0.5997881934302356,0.6200343268100517,-0.3331289356033396,-0.20319325897541762,-2.529787396976183,0.1128557627938519,-26.560250233771335,2.139127918431661,14.75185404889676,205.0510421405224,40.226022534246496,-113.88759592275585
1.3969849246231156,-0.11410009896819025,0.9086101971937822,0.06337244536961248,0.5964159680299096,0.5945968936248014,-0.33125596466037927,-0.4610239609369249,-2.506152810141429,0.256057760184109,-24.491286583282022,2.5380247743938447,13.602728964010195,204.42406820045997,38.74377410884454,-113.53936772554911
1.407035175879397,-0.10810333275426845,0.9144888271543273,0.06004177569690555,0.5905447874163079,0.5694182858457038,-0.32799504660636136,-0.6980060109251043,-2.4785657612209633,0.3876801877916942,-22.43396333268961,2.921600397622849,12.46006908479155,202.75982055095656,37.1932076462137,-112.61502634282184
1.4170854271356783,-0.10217760850646025,0.9201146003101853,0.056750563510714384,0.5823844755046539,0.5445376341849577,-0.32346271994321785,-0.9143085295924287,-2.4471844148404354,0.5078169770803456,-20.39835029592466,3.2891886368303953,11.329467296250941,200.13865281285814,35.57906274601085,-111.15920105617039
1.4271356783919598,-0.0963449979300081,0.9254907171126782,0.05351106767801052,0.5721426479138484,0.5199924385629302,-0.31777429666091705,-1.1101982914437236,-2.412173422483714,0.616616297533642,-18.393716865692124,3.6401712603291534,10.216071920678425,196.63869476789586,33.90608788957044,-109.21528600258131
1.4371859296482412,-0.09062549077073943,0.9306207482963409,0.0503343907226905,0.56002376601563,0.49581850503049296,-0.31104333684597124,-1.2860317532232417,-2.373703438003423,0.7142761291336333,-16.428554476493296,3.9739780457466956,9.124599193852168,192.33585235869617,32.1790404399047,-106.82544017442802
1.4472361809045227,-0.08503703111864076,0.9355086174711682,0.04723049898897928,0.5462282703590307,0.4720498875897652,-0.3033811673759109,-1.4422473092003139,-2.331950632225249,0.8010399608618028,-14.510599067647025,4.290086869739371,8.059345741246798,187.30380768878126,30.402686641703383,-104.03058741947353
1.4572864321608041,-0.07959556207348381,0.9401585831519663,0.04420824744920673,0.5309517911784137,0.44871883492241843,-0.2948964434267761,-1.579357773354623,-2.2870962066460874,0.877192615222312,-12.646853546310432,4.588023797706276,7.024201054240592,181.61401902255523,28.581801621333938,-100.870416440871
1.4673366834170853,-0.07431507800544881,0.9445752202744357,0.04127540872993414,0.5143844336929702,0.42585574203470217,-0.2856947515206345,-1.6979430884604705,-2.2393259062259405,0.9430561987874841,-10.843610250501236,4.867363173503092,6.022659966325389,175.3357207853265,26.7211693868415,-97.38338079716021
1.4773869346733668,-0.069207683666864,0.9487634012476874,0.03843870594325741,0.49671013590598395,0.4034891068283367,-0.2758782528402558,-1.7986432620702448,-2.1888295312736568,0.9989861787656789,-9.106473412118206,5.127727709156084,5.057835129313773,168.53592356328755,24.825582827948892,-93.6066989022705
1.4874371859296482,-0.06428365943429769,0.9527282765929963,0.03570384892298428,0.4781060966117415,0.3816454916064305,-0.26554536553787444,-1.882151529397412,-2.135800448426445,1.0453675855914373,-7.440381619962423,5.368788574575949,4.132469489546885,161.27941410352304,22.899843716056516,-89.57635402552211
1.4974874371859297,-0.05955153198342756,0.9564752552186934,0.03307557347822753,0.4587422713183657,0.3603494895235776,-0.2547904847652105,-1.9492077430982064,-2.0804351007231925,1.0826113415379575,-5.849630282759875,5.590265487271784,3.2489487641033676,153.62875531401664,20.94876270424247,-85.32709429162037
1.5075376884422111,-0.055018149722230236,0.9600099843811749,0.030557683289828674,0.43878093379450733,0.33962369598928266,-0.24370373915170454,-2.0005919899528886,-2.0229325167715824,1.1111507153518967,-4.3378940921808535,5.79192680206495,2.4093139170077222,145.64428626363826,18.977159327262534,-80.89243268066406
1.5175879396984926,-0.05068876233120787,0.9633383293821134,0.028153094087868313,0.41837630094805506,0.3194886850338733,-0.23237078245804554,-2.0371184344462154,-1.963493819009016,1.1314379029103088,-2.908249485861873,5.973589600803047,1.6152736354372124,137.3841221821482,16.989862001550094,-76.30464702813538
1.5276381909547738,-0.04656710378250573,0.9664663530520438,0.025863879761395873,0.39767421874501907,0.29996299064604937,-0.22087261913203887,-2.0596293892469175,-1.9023217310573213,1.143940733900187,-1.5631971104285185,6.135119782073793,0.8682168059314392,128.9041544602054,14.991708025216319,-71.59478002490965
1.5376884422110553,-0.04265547823292242,0.9694002950705857,0.02369132006434795,0.37681190687647526,0.2810630930912248,-0.20928546249388214,-2.0689896125862806,-1.8396200841712675,1.1491395045198742,-0.30468428451428053,6.276432150918896,0.16922499060052587,120.25805064935912,12.987543578049962,-66.79263921725101
1.5477386934673367,-0.03895484820899002,0.9721465511736632,0.021635949594509405,0.35591775988195473,0.2628034102198117,-0.19768062427788358,-2.066080832536457,-1.7755933227808856,1.1475239362034246,0.8658725382165642,6.397490508548122,-0.4809150966684115,111.49725446204297,10.98222372151719,-61.926797006808215
1.5577889447236182,-0.03546492452541869,0.9747116522981663,0.019697607735200864,0.3351112024370161,0.24519629377461133,-0.18612443425759867,-2.051796498187514,-1.7104460091275715,1.1395902603664787,1.9475653060483182,6.498307742052992,-1.0816991140008128,102.67098577159527,8.980612398762295,-57.0245906506247
1.5678391959798996,-0.03218425740136942,0.9771022437146056,0.017875489262256045,0.3145025965134608,0.22825203070644653,-0.17467818868160778,-2.027036757723721,-1.644382326994005,1.1258384291753316,2.9399719061921985,6.578945914120909,-1.632892615328231,93.82624061223498,6.987582434606869,-52.11212226112775
1.5778894472361809,-0.029110328262162657,0.9793250641983828,0.0161681953316985,0.2941931981199004,0.21197884950720894,-0.1633981262467442,-1.9927036633991673,-1.5776055845278472,1.1067694523371747,3.8431337017642164,6.639516352748902,-2.1345185741784647,85.00779117908485,5.008015535550419,-47.21425880613572
1.5879396984924623,-0.02623964173720518,0.9813869252904134,0.014573784576392697,0.2742751613311629,0.19638293156946185,-0.1523354303360469,-1.9496966034127006,-1.5103177161592696,1.0828828599139912,4.657533068766284,6.6801797409576755,-2.586844907469697,76.25818582815077,3.0468022897698077,-42.354632108857345
1.5979899497487438,-0.023567817388004467,0.9832946906979187,0.013089824052799695,0.2548315873142286,0.18146842758175402,-0.1415362562483683,-1.8989079606819388,-1.4427187836122368,1.0546742911576228,5.3840709330640095,6.701146206505439,-2.9903719992994553,67.61774907633003,1.1088421671198576,-37.5556388478866
1.6080402010050252,-0.02108968072340095,0.9850552558862979,0.011713439791820122,0.23593661605915028,0.16723747896880797,-0.13104178214666196,-1.8412189985162506,-1.3750064760096326,1.0226332093677328,6.024044307361947,6.702675411601875,-3.3458202247392137,59.12458160141932,-0.800956480867189,-32.83844055720783
1.6180904522613067,-0.018799353082141895,0.9866755279130814,0.010441366720571374,0.2176555585226898,0.15369024438571713,-0.1208882824520483,-1.7774959731892324,-1.3073756090721502,0.9872407427717604,6.579123828188074,6.685076642621991,-3.6541174736241118,50.81456024210161,-2.6776764209811033,-28.222963626196815
1.6281407035175879,-0.016690339986255492,0.9881624055550742,0.009269997734816654,0.20004506689317703,0.14082493127532886,-0.11110722241078075,-1.7085864734105378,-1.2400176234110125,0.9489676514277399,7.051331292869463,6.648708899820127,-3.9163866743458016,42.7213379979562,-4.5163915383345525,-23.727899299614705
1.6381909547738693,-0.014755617591665326,0.9895227597798636,0.008195431714582438,0.18315334068421207,0.12863783249794408,-0.1017253725608942,-1.6353159866964155,-1.1731200819144505,0.9082724201484922,7.443017196509658,6.593980987043752,-4.1339333176435105,34.87634402945059,-6.31216683636199,-19.370703677611345
1.6482412060301508,-0.012987716885753786,0.9907634146129828,0.007213520288408715,0.16702036636569306,0.11712336804250413,-0.09276494182598594,-1.5584846926400928,-1.1068661662280412,0.8655994774491198,7.756838268969602,6.521351601447526,-4.308232980397065,27.308783657947515,-8.060058436820395,-15.167597715731631
1.6582914572864322,-0.011378805304671863,0.9918911284521044,0.006319913164501631,0.15167818824002177,0.10627413182840989,-0.08424372796278523,-1.4788644830804998,-1.0414341723287643,0.8213775405159982,7.9957350118458805,6.431329423207101,-4.440918849417756,20.045638365698323,-9.755113579789246,-11.133567224897774
1.6683417085427137,-0.009920765466374298,0.992912575879724,0.0055101018599127,0.13715120827168548,0.09608094360712781,-0.07617528408978047,-1.3971962091712342,-0.9769970051929363,0.7760180861986008,8.16290923544986,6.324473205233035,-4.533769245239654,13.111665795852787,-11.392370623670168,-7.282362871432952
1.678391959798995,-0.008605270738480886,0.9938343300259013,0.004779461671766072,0.12345651257828738,0.08653290597273941,-0.06856910002391992,-1.3141871553476747,-0.9137216725578821,0.729913948023647,8.261801595783965,6.201391862884852,-4.588695145913476,6.529399752444988,-12.96685904518716,-3.626500177040043
1.6884422110552764,-0.007423857383243637,0.9946628455327032,0.004123291747369695,0.11060422229100597,0.07761746649058518,-0.061430797152414396,-1.2305087401943275,-0.8517687777774657,0.6834380392306407,8.296069131524007,6.062744563684705,-4.60772771079516,0.3191502004069662,-14.473599439386806,-0.1772595188174364
1.6984924623115578,-0.006367993045050424,0.995404442172101,0.0035368531229067746,0.0985978664929208,0.06932048495315903,-0.054762335566623355,-1.14679444421067,-0.7912920117713418,0.636942201831161,8.269562800994095,5.9092408170315425,-4.593005804341061,-5.500996734437194,-15.907603519637368,3.055313870750979
1.7085427135678393,-0.0054291413689827595,0.9960652891691484,0.0030154046133108736,0.0874347749426101,0.06162630577239525,-0.048562232185253684,-1.0636379644764986,-0.7324376440680986,0.5907561816896632,8.186305019151007,5.741640563914944,-4.546763519897553,-10.915178765377732,-17.263874117630532,6.062409903794105
1.7185929648241207,-0.0045988225622339285,0.9966513902823784,0.002554236448728625,0.07710648829195499,0.0545178355175269,-0.04282578859363362,-0.9815915962158428,-0.6753440129420955,0.5451867296261774,8.050467194554017,5.5607542666288445,-4.47131770349381,-15.909757444801471,-18.537405183379043,8.836453637045224
1.728643216080402,-0.0038686697331686837,0.9971685696934368,0.0021487015658505915,0.0675991835056804,0.047976625607635145,-0.03754532732646032,-0.9011648412617106,-0.6201410146442228,0.5005168285420929,7.866347266353557,5.367442998485888,-4.369055477634248,-20.47331816421729,-19.723181785219282,11.371105271861325
1.7386934673366834,-0.0032304808661009488,0.9976224587580648,0.001794244475280815,0.05889411219058971,0.04198296016808259,-0.03271043532072948,-0.8228232434174387,-0.5669495917263098,0.45700504656785057,7.63834724126076,5.162618533530807,-4.242421765086249,-24.596670154228832,-20.81618010980874,13.661260154195134
1.7487437185929648,-0.002676266312947928,0.9980184836706388,0.001486427638920429,0.05096804954347789,0.03651594905994467,-0.028308213266202475,-0.7469874507211927,-0.5158812204595122,0.4148850162333275,7.37095073053564,4.947243436254795,-4.0939068126783695,-28.272846484558613,-21.811367462128267,15.703048774621493
1.7587939698492463,-0.0021982917060620055,0.998361854094569,0.0012209553042174526,0.04379375162443466,0.031553626091610075,-0.024323529580103642,-0.6740325046035736,-0.46703739734629823,0.3743650396593168,7.068700486957425,4.722331151309069,-3.926033715088039,-31.49710406402437,-22.70370226548045,17.49383676832349
1.7688442211055277,-0.0017891162197768429,0.9986575528109429,0.0009936947550546193,0.03734041866499638,0.02707305242172937,-0.020739277733512473,-0.6042873559523443,-0.42050912472642954,0.33562781977366996,6.7361759418046745,4.488946093219094,-3.7413459386330032,-34.26692364056407,-23.488134061490438,19.03222491509223
1.778894472361809,-0.0014416261311704925,0.9989103264379013,0.0008006949517591622,0.0315741621183383,0.023050425162607475,-0.01753663565612129,-0.538034608068557,-0.376376395476582,0.29883031754685874,6.37797074184067,4.248203736098267,-3.542394845065644,-36.58200980121137,-24.159603510105505,20.3180491393357
1.7889447236180904,-0.0011490636539900345,0.9991246772733211,0.000638202545795663,0.026458473159885365,0.01946119119324876,-0.014695325946655124,-0.4755104865276536,-0.33470767680385255,0.2641037352524478,5.998670286284209,4.001270703362003,-3.331727215363628,-38.44429097211787,-24.713042389595614,21.352380510068087
1.7989949748743719,-0.0009050510424457592,0.9993048563134755,0.0005026752672551149,0.02195469034641917,0.016280166191178155,-0.012193875615913896,-0.4169050359363382,-0.29555939313304075,0.23155362574727434,5.6028292637921595,3.7493648574413667,-3.1118727735199627,-39.85791941854268,-25.143373596552813,22.137525240915693
1.8090452261306533,-0.0007036099852197886,0.9994548575004337,0.0003907926965140973,0.018022464141946415,0.013481658892199613,-0.010009874089387694,-0.36236254359099007,-0.2589754080877635,0.20126012777731717,5.194949189438489,3.4937553894974873,-2.8853317103386757,-40.829271244856045,-25.445511145891803,22.677024690119197
1.8190954773869348,-0.0005391763326318966,0.9995784132510454,0.0002994644438691907,0.0146202160179989,0.011039600587254346,-0.008120228196670354,-0.31198219003351824,-0.22498650556527888,0.17327832730198622,4.779455941689889,3.235762909134925,-2.6545622072221704,-41.366946394518436,-25.61436017084913,22.975655360529345
1.829145728643216,-0.00040661022357668664,0.9996789913204707,0.0002258357741310446,0.011705589836854102,0.008927679865512954,-0.006501412874819756,-0.2658189265061992,-0.19360986990519619,0.14763874484390271,4.360677299388385,2.9767595341159403,-2.421967959967276,-41.48176865010646,-25.644816922983953,23.03942889960217
1.8391959798994975,-0.0003012017015209256,0.9997597930532826,0.00016729072583154814,0.009235893225408631,0.007119482612847401,-0.005129716311862431,-0.22388457930742334,-0.16484856515195478,0.12434794885891165,3.942820478724798,2.7181689800742017,-2.189885702552317,-41.18678563331832,-25.531768772177795,22.87559209941128
1.849246231155779,-0.00021867193262647966,0.9998237530752729,0.00012145278776043433,0.007168526648694495,0.005588637274926603,-0.003981478259259319,-0.18614918104871947,-0.1386910134111436,0.10338929513029882,3.5299496702283477,2.46146665022912,-1.9605727309360077,-40.49726880494654,-25.27009420663477,22.492626896641013
1.8592964824120604,-0.00015517016123434146,0.999873540479198,8.618320801911938e-05,0.0054613978891460135,0.0043089653939130945,-0.0030333202380621316,-0.15254252880141905,-0.11511047229947924,0.08472379218291337,3.1259635757293154,2.2081797250989674,-1.7361944268390062,-39.430713464893415,-24.854662832880443,21.900250372583287
1.8693467336683418,-0.00010726656231097031,0.9999115615577603,5.957702421477418e-05,0.004073319642239781,0.0032546374281088863,-0.002262366368020352,-0.1229559691553419,-0.09406451148876516,0.06829109272159428,2.734572945350692,1.9598872522157524,-1.5188117815465034,-38.00683875216873,-24.28033537576387,21.109414753146666
1.879396984924623,-7.194117260911348e-05,0.9999399641372547,3.995691564573356e-05,0.0029643879346430424,0.002400333863563725,-0.0016464535450815276,-0.09724441016777519,-0.0754944883435279,0.05401061109149907,2.3592781144818673,1.7182202358382392,-1.3103689196919959,-36.24758764488524,-23.541963678455556,20.1323074088441
1.8894472361809045,-4.6569105841332004e-05,0.9999606435653641,2.5864991724633413e-05,0.002096339074071807,0.00172141162686118,-0.0011643296950438753,-0.07522856021424218,-0.05932502265250694,0.04178276675952475,2.0033465407572066,1.4848617266665576,-1.1126806230541888,-34.177126960281385,-22.634390702449085,18.98235085480519
1.899497487437186,-2.8902280563514182e-05,0.9999752504067064,1.6052643344588446e-05,0.001432882837946181,0.0011940758082378267,-0.0007958388308590969,-0.0566973937411035,-0.04546347045396537,0.03149035382044474,1.6697903410374693,1.2615469115558247,-0.9274198543474768,-31.821847354691272,-21.55245052755958,17.674202750768018
1.9095477386934674,-1.7047911905265778e-05,0.999985199899817,9.468597087725072e-06,0.0009400096104457134,0.0007955567041456474,-0.0005220916389543362,-0.04141084391062577,-0.033799396954646954,0.02300003652219118,1.361343828384861,1.0500632032299686,-0.7561052810092406,-29.210363323552883,-20.29096835192513,16.223755901082768
1.9195979899497488,-9.444042400996722e-06,0.9999916832293485,5.245324631086845e-06,0.0005862691737092973,0.0005042921884770707,-0.0003256203238315436,-0.029102722154220828,-0.02420404854275926,0.01616397081620846,1.080441049043202,0.8522503299958224,-0.6000887989997636,-26.373513201411697,-18.844760492005904,14.64813825471083
1.92964824120603,-4.832409306043672e-06,0.9999956806673462,2.6839730788985605e-06,0.00034301886478615984,0.00030011542154198545,-0.00019051643650058736,-0.01948386461657492,-0.016529823894596785,0.010821551928387407,0.8291933194179819,0.6700004254569407,-0.46054305658674366,-23.344359161931607,-17.208634382584748,12.965712905223882
1.9396984924623115,-2.2289699082023162e-06,0.9999979766375766,1.237994306402257e-06,0.00018463880191887938,0.000164447905988227,-0.00010255041398288256,-0.012245505504523635,-0.010609744175002045,0.006801287953607016,0.6093667630534583,0.5052581182275828,-0.3384489781414004,-20.15818721787764,-15.377388576765977,11.196078090807987
1.949748743718593,-8.924285079814354e-07,0.9999991767569576,4.956645633935608e-07,8.871189279346936e-05,8.049789881554859e-05,-4.927155739764544e-05,-0.007062877332941753,-0.006256922331635106,0.003922799471794747,0.4223598476105508,0.36002062164659066,-0.23458328792912653,-16.852507221124142,-13.345812745977224,9.36006719424995
1.9597989949748744,-2.911328675914149e-07,0.9999997269082443,1.6169837335766601e-07,3.616632900715899e-05,3.3464188619491964e-05,-2.008717537549387e-05,-0.00359903807026285,-0.0032640314830750805,0.0019989451855337848,0.2691809218515573,0.23633782349129362,-0.14950603390150263,-13.467052862656601,-11.10868767996805,7.479748742963238
1.9698492462311559,-6.873034763543728e-08,0.9999999343981963,3.817358429358819e-08,1.1378277676499238e-05,1.074524723060355e-05,-6.3196201018911324e-06,-0.0015089251808433346,-0.001402772400631802,0.0008380735819173424,0.1504257526080437,0.13631237569130494,-0.08354811148569752,-10.043781672557998,-8.660785286810217,5.578426408958876
1.9798994974874373,-8.997373512897866e-09,0.9999999912555809,4.997243951976316e-09,2.2324771293824597e-06,2.153764926876578e-06,-1.2399422253395187e-06,-0.00044363657400481316,-0.00042334008403588363,0.00024640061511149725,0.06625506176692397,0.06209978404291139,-0.03679878738228126,-6.626875020021544,-5.99686859289816,3.6806390088704575
1.9899497487437185,-2.79294809502062e-10,0.9999999997234182,1.5512346962509582e-10,1.3844361745896094e-07,1.365782885121014e-07,-7.689301995128517e-08,-5.493844059856201e-05,-5.3889430908116154e-05,3.0513411985566563e-05,0.0163720632535842,0.015908497922266562,-0.009093223348600077,-3.262738113364321,-3.111691742948466,1.8121605039323185
2.0,-9.769962616701378e-15,0.9999999999999999,1.3322676295501878e-15,-1.3500311979441904e-13,-1.3322676295501878e-14,1.3855583347321954e-13,5.684341886080801e-13,1.5987211554602254e-14,2.842170943040401e-14,-1.8189894035458565e-12,-4.618527782440651e-14,2.1600499167107046e-12,9.094947017729282e-12,8.526512829121202e-14,-9.094947017729282e-13
