t,posx,posy,posz,velx,vely,velz,accx,accy,accz,jerkx,jerky,jerkz,snapx,snapy,snapz
0.0,4.733112522923146e-10,6.946163059289554e-12,-2.62881753311832e-10,2.73236994334334e-10,4.009935909787863e-12,-1.5175853059505716e-10,1.3934138169970127e-10,2.0449290223856186e-12,-7.739158235972994e-11,5.7849061107470175e-11,8.489761228908834e-13,-3.212994107135857e-11,1.5603601007204453e-11,2.2899571546711703e-13,-8.666394457532199e-12
0.0010005002501250625,4.736265528807507e-10,6.952948426922098e-12,-2.630568744231937e-10,4.816561382004303e-10,1.7846682408320545e-11,-2.675168069784086e-10,8.317472010389819e-07,5.5265039127186525e-08,-4.6196151027868126e-07,0.002488945376648579,0.00016552099011872152,-0.001382387538100571,4.959401784957114,0.33030264070370924,-2.754506100567886
0.002001000500250125,4.751899820501817e-10,7.042738302876475e-12,-2.63925219826311e-10,3.5951489526847863e-09,2.2504159855224962e-10,-1.996784836209105e-09,6.6259429568856355e-06,4.4128797147283047e-07,-3.6801213306373116e-06,0.0099017689819188,0.0006604501657135686,-0.005499551004284027,9.837994284314997,0.6581585811800441,-5.464129838339361
0.003001500750375187,4.842155224282955e-10,7.62975972957088e-12,-2.689381035705325e-10,1.703465402763844e-08,1.1213109574366246e-09,-9.46123323583746e-09,2.2271133716455535e-05,1.4865839925513484e-06,-1.236963173136722e-05,0.02215783715175725,0.001482341455520678,-0.012306705577885053,14.636289686505624,0.9835739692817048,-8.129155688382527
0.00400200100050025,5.167811649679835e-10,9.788629169864915e-12,-2.8702541802693964e-10,5.307409831465982e-08,3.529988566523609e-09,-2.947793554256521e-08,5.2575268551306515e-05,3.5172208118765755e-06,-2.9200880316270954e-05,0.039177028245589905,0.0026287549398710257,-0.02175935082169002,19.35479894160689,1.3065549497389628,-10.749867437970057
0.0050025012506253125,6.036465311100619e-10,1.558107384561571e-11,-3.352713940329857e-10,1.2876011489904872e-07,8.59958096054362e-09,-7.151477858299007e-08,0.00010226635047053329,6.856826854928977e-06,-5.6799851769944395e-05,0.06087973146459322,0.004097256848414078,-0.03381327002559172,23.99403176135825,1.6271076641598887,-13.326548186587889
0.006003001500750374,7.94990388647637e-10,2.838020890604378e-11,-4.4154586912115973e-10,2.658322726367287e-07,1.7801328756032072e-08,-1.4764615713976323e-07,0.00017599294715346165,1.1826597417065389e-05,-9.774841152431204e-05,0.08718684561211597,0.005885419556992462,-0.04842452951811413,28.55449661916072,1.9452382510303527,-15.859480345935202
0.007003501750875437,1.1650685730478088e-09,5.3192376592144597e-11,-6.470913480663922e-10,4.906438164140774e-07,3.292677416437013e-08,-2.725089522233056e-07,0.00027832470044152356,1.8745300814300286e-05,-0.000154584588735998,0.11801977785410135,0.007990821584516646,-0.06554947797793718,33.03670075007681,2.2609528457140238,-18.348945639924434
0.0080040020010005,1.8167928247431045e-09,9.69765535602473e-11,-1.009066139296381e-09,8.340829167886024e-07,5.6085334660197884e-08,-4.632587922592283e-07,0.00041375283458931387,2.7929284530958642e-05,-0.0002298028585745326,0.15330044247950886,0.010411047589839607,-0.08514474574542158,37.441150150830644,2.5742575804523713,-20.79522510468128
0.009004502251125562,2.8862310516617225e-09,1.6896133252468704e-10,-1.6030438500184667e-09,1.3314944277684055e-06,8.970188280206839e-08,-7.395265965016039e-07,0.0005866906632748272,3.969248136420026e-05,-0.00032585442382139436,0.19295125966073637,0.01314368836863151,-0.1071672441341335,41.76834957980784,2.8851585843646634,-23.198599088544665
0.010005002501250625,4.547029525022376e-09,2.8095948437642277e-10,-2.525469522226145e-09,2.022602151488367e-06,1.365143322022109e-07,-1.1233753999822329e-06,0.000801474095368878,5.4346415565415695e-05,-0.00044514749577988786,0.23689515421404192,0.016186340850254374,-0.13157416474236955,46.01880255705559,3.1936619834479685,-25.55934725206679
0.011005502751375688,7.014757515176199e-09,4.4768010693129835e-10,-3.896072691057758e-09,2.9514316085410026e-06,1.9957122964227188e-07,-1.6392574593060528e-06,0.001062362139463698,7.22002089784938e-05,-0.0005900475744958576,0.2850555543599659,0.019536608094636768,-0.15832297876468113,50.193011364282604,3.499773900577153,-27.8777485680131
0.012006003001500749,1.0551174873034912e-08,6.870383664585077e-10,-5.8602376462893535e-09,4.166233312719909e-06,2.8222935333190196e-07,-2.3139716386028325e-06,0.0013735374071607211,9.356058717496061e-05,-0.0007628777282892363,0.33735639048375266,0.02319209928914845,-0.1873714363033998,54.29147704485915,3.8035004555048855,-30.154081321362277
0.013006503251625811,1.5468423061381075e-08,1.0204628381366938e-09,-8.591331177053181e-09,5.71940654893377e-06,3.881513173070575e-07,-3.176621074945306e-06,0.0017391066151175403,0.00011873188558598994,-0.0009659188725964296,0.39372209389577306,0.027150429745475074,-0.2186775656801615,58.31469940381706,4.1048477648616295,-32.38862310930628
0.014007003501750874,2.213314013911305e-08,1.4732004515819734e-09,-1.2292988079182714e-08,7.667423653048826e-06,5.213031819648852e-07,-4.258571122543873e-06,0.002163101085854056,0.00014801605563128563,-0.0012014100481235368,0.4540775955919459,0.03140922089649284,-0.25219967274743177,62.26317700784969,4.403821942155653,-34.58165084125029
0.015007503751875937,3.097050020023388e-08,2.0746190475890453e-09,-1.720135470389457e-08,1.0070754792417775e-05,6.859520707320575e-07,-5.5934075750280424e-06,0.0026494772473177972,0.00018171267084483492,-0.0014715486983104067,0.5183483250141602,0.035966100293143184,-0.28789634020003024,66.13740718531196,4.70042909777302,-36.73344073881277
0.016008004002001,4.2468177768150046e-08,2.8585075522234072e-09,-2.358729082582713e-08,1.2993793245853038e-05,8.866637928634282e-07,-7.216895165124725e-06,0.003202117131208429,0.00022011893299753385,-0.0017784909461055283,0.5864602088106966,0.04081870160130745,-0.3257264268866554,69.93788602622033,4.994675338977595,-38.844268335825426
0.01700850425212606,5.718023764460278e-08,3.863373774399566e-09,-3.1758530107765165e-08,1.650478118180229e-05,1.128300472367876e-06,-9.166936341043556e-06,0.003824828870061436,0.00026352967821668385,-0.0021243518700517572,0.6583396695966505,0.04596466459868155,-0.36564906712140943,73.66510838225274,5.286566769911042,-40.91440847833319
0.018009004502251125,7.573095071131137e-08,5.132739833077014e-09,-4.206179943868923e-08,2.0675735933484296e-05,1.4160181830582067e-06,-1.14835303188794e-05,0.004521347193090998,0.0003122373831023605,-0.0025112057796828845,0.7339136247143528,0.05140163517165069,-0.40762366999532357,77.31956786674881,5.576109491592826,-42.94413532459427
0.019009504752376186,9.88185361811642e-08,6.715435220202539e-09,-5.4884897421097746e-08,2.5582376769742846e-05,1.755264589721974e-06,-1.4208732410342095e-05,0.005295333920792031,0.0003665321708406525,-0.0029410864902310223,0.8131094849937929,0.05712726531216392,-0.45160991868788164,80.90175685470962,5.863309601920209,-44.93372234508015
0.02001000500250125,1.2721883079455046e-07,8.665887505524427e-09,-7.065873228285982e-08,3.130405216037681e-05,2.151776595410101e-06,-1.7386613625123725e-05,0.006150378458301414,0.0004267018173137736,-0.0034159875966448504,0.8958551535130391,0.06313921311460897,-0.4975677697785457,84.41216648279773,6.148173195668254,-46.883442322475496
0.02101050525262631,1.6178888545518238e-07,1.1044410689400863e-08,-8.985931948816579e-08,3.7923667534704395e-05,2.6115779948401624e-06,-2.1063220547213462e-05,0.007089998287518416,0.0004930317572070455,-0.003937862746918679,0.9820790243586629,0.0694351427726868,-0.5454574525582808,87.8512866493374,6.43070636448982,-48.7935673516783
0.022011005502751375,2.034704897985133e-07,1.3917491209721739e-08,-1.1300973932145163e-07,4.552761353211914e-05,3.140977133911193e-06,-2.5286535484470176e-05,0.008117639457984277,0.0005658050901127526,-0.004508625914732359,1.071709981386159,0.07601272457628638,-0.5952394683410798,91.21960601431434,6.710915196915573,-50.664368839799764
0.023011505752876436,2.532936251846147e-07,1.7358071609059956e-08,-1.4068205471748373e-07,5.42056947433961e-05,3.746564575326896e-06,-3.010643689076285e-05,0.00923667707652098,0.0006453025866308674,-0.005130151671402014,1.1646773969803677,0.08286963490835922,-0.6468745897754874,94.5176119993758,6.98880577835397,-52.49611750616432
0.024012006003001497,3.1237984660613177e-07,2.1445831868165173e-08,-1.7349918961009902e-07,6.405105894150561e-05,4.435210770324116e-06,-3.5574660059989124e-05,0.010450415795629208,0.000731802694466648,-0.005804275457141625,1.2609111308158973,0.09000355624179417,-0.7003238601561259,97.74579078783061,7.264384191091273,-54.28908338230971
0.02501250625312656,3.8194559400069505e-07,2.626746841190987e-08,-2.1213676807140662e-07,7.516012680069332e-05,5.214063736503464e-06,-4.174475809128205e-05,0.011762090300645485,0.0008255815445251074,-0.006532793851635437,1.3603415286175462,0.09741217713629201,-0.7555485927352189,100.90462732464916,7.537656514291541,-56.04353581198691
0.026013006503251623,4.633054334559182e-07,3.191697079379429e-08,-2.573249145125632e-07,8.763252210258353e-05,6.0905467417589225e-06,-4.867206312471505e-05,0.013174865795658493,0.0009269129570023558,-0.007317464843921214,1.4628994209207251,0.1050931922352403,-0.8125103700341184,103.99460531646329,7.808628823996633,-57.75974345116013
0.027013506753376687,5.578752287938731e-07,3.849589606511379e-08,-3.098500152165475e-07,0.00010157100242806419,7.072355994303328e-06,-5.6413647846815416e-05,0.014691838488184561,0.0010360684474738098,-0.008160008101584314,1.5685161218318766,0.1130443022625878,-0.8711710431548257,107.01620723156657,8.077307193126211,-59.437974268006826
0.028014007003501748,6.67175244020689e-07,4.6113640834889204e-08,-3.705564414726669e-07,0.00011708139033371207,8.167458338786609e-06,-6.502828726519644e-05,0.01631603607260235,0.0011533172329792774,-0.009062105239262605,1.6771234277889002,0.12126321401971923,-0.9314927310915194,109.96991429991384,8.343697691477729,-61.07849554291772
0.029014507253626812,7.928331771256808e-07,5.488771102665738e-08,-4.4034823458183963e-07,0.00013427250501151495,9.384088958503631e-06,-7.457642075161835e-05,0.018050418212346712,0.0012789262381049144,-0.010025400086462235,1.788653616321573,0.12974764038233005,-0.9934378200420797,112.85620651312178,8.607806385726441,-62.6815738684968
0.030015007503751873,9.36587125713159e-07,6.494398933821584e-08,-5.201907530010025e-07,0.00015325609443064969,1.0730749083688496e-05,-8.512011435278802e-05,0.019897877020861744,0.0014131601010620508,-0.011051498954684215,1.9030394448119727,0.13849530029730112,-1.0569689627196117,115.67556262446843,8.869639339425413,-64.24747514956125
0.031015507753876938,1.1002884849488444e-06,7.641700041041276e-08,-6.111122818943076e-07,0.00017414676796007316,1.2216203705892205e-05,-9.672302336820791e-05,0.02186123754131299,0.0015562811797628874,-0.012141970903861826,2.0202141492548957,0.14750391877957322,-1.1220490776639718,118.42846014889346,9.1292026130055,-65.7764646031416
0.032016008004002,1.2859047783015605e-06,8.945017371107033e-08,-7.142056053580793e-07,0.00019706192947068532,1.3849479298440542e-05,-0.00010945035519438396,0.023943258225058852,0.0017085495578930672,-0.013298348008108904,2.1401114430182844,0.1567712269090218,-1.1886413485532907,121.11537536299797,9.38650226377535,-67.26880675848155
0.03301650825412706,1.495522421559629e-06,1.0419610414012582e-07,-8.306295415858112e-07,0.00022212171091582134,1.563986154296904e-05,-0.00012336883243470323,0.026146631408881182,0.0018702230509811174,-0.014522125620778939,2.2626655156036466,0.16629496182733175,-1.2567092235155004,123.73678330504475,9.641544345921426,-68.7247654570381
0.03401700850425212,1.7313494206001594e-06,1.2081681036207216e-07,-9.616104412387944e-07,0.00024944890638883057,1.759689306203186e-05,-0.00013854665627429063,0.028473983790975044,0.0020415572124647605,-0.015814762638834974,2.387811031406476,0.17607286673487196,-1.3262164144398576,126.29315777495809,9.894334910507977,-70.14460385248141
0.03501750875437719,1.9957180033881723e-06,1.3948399087177663e-07,-1.1084436492872722e-06,0.0002791689066565016,1.9730371157781585e-05,-0.0001550534701191557,0.030927876905697694,0.002222805339754105,-0.017177681766530447,2.51548312847668,0.18610269088757017,-1.3971268962884684,128.78497133432379,10.144880005477066,-71.52858441069505
0.03601800900450225,2.291087186681254e-06,1.6037927779975219e-07,-1.2724949305863365e-06,0.0003114096341670888,2.2050345556716512e-05,-0.0001729603234989382,0.03351080759707661,0.002414218480291687,-0.018612269778400668,2.64561741727899,0.19638218959378723,-1.4694049064078136,131.21269530638912,10.393185675648537,-72.8769689097757
0.03701850925462731,2.620045277914214e-06,1.8369448846295557e-07,-1.4552018594500815e-06,0.0003463014785317024,2.4567116160492782e-05,-0.00019233963623256541,0.0362252084910769,0.0026160454376094166,-0.020119877781565387,2.778149979453397,0.2069091242111922,-1.5430149438402727,133.57679977606318,10.639257962720048,-74.19001844003338
0.03801900950475237,2.9853123127369392e-06,2.096318746671788e-07,-1.6580751734868412e-06,0.0003839772324778159,2.7291230802797684e-05,-0.00021326516285612794,0.039073448466627816,0.002828532777382365,-0.021701821477342034,2.913017366575566,0.21768126214363703,-1.6179217686356506,135.8777535899163,10.883102905267053,-75.46799340399129
0.03901950975487744,3.389742428677417e-06,2.384043697671011e-07,-1.8827000919576453e-06,0.0004245720282736495,3.0233483012281332e-05,-0.00023581195731228586,0.042057833125408256,0.0030519248334794345,-0.023359381422169742,3.050156598917256,0.22869637683803073,-1.6940904011626987,138.11602435618045,11.124726538742799,-76.71115351638593
0.0400200100050025,3.836326175400675e-06,2.702358334900652e-07,-2.1307375989193535e-06,0.00046822327462219167,3.340490978154358e-05,-0.0002600563379005165,0.045180605260391825,0.0032864637140109084,-0.025093803287844423,3.189505164206751,0.23995224778121482,-1.7714861214206452,140.29207844474925,11.364134895478344,-77.91975780416705
0.04102051025512756,4.328192762033099e-06,3.053612945296357e-07,-2.4039256914132073e-06,0.0005150705940236103,3.6816789342172884e-05,-0.00028607585248751114,0.048443945323150744,0.0035323893073728615,-0.02690629812106447,3.3310010163892727,0.25144666049683717,-1.8500744683507127,142.40638098717776,11.601334004682533,-79.09406460649765
0.04202101050525262,4.8686122420203665e-06,3.4402719091499656e-07,-2.7040805929588697e-06,0.0005652557606048162,4.0480638945834066e-05,-0.00031394924397703383,0.05184997188991911,0.003789939288288443,-0.028798042602287407,3.474582574387405,0.2631774065422273,-1.929821239147651,144.4593958766826,11.836329892442022,-80.23433157475397
0.04302151075537768,5.460997635986022e-06,3.864916081622425e-07,-3.033097932613343e-06,0.0006189226384149357,4.440821265140189e-05,-0.00034375641603854966,0.0554007421264153,0.004059349123846036,-0.03077017930389732,3.620188720861521,0.275142283505271,-2.0106924885712556,146.45158576814205,12.069128581721255,-81.34081567252547
0.04402201100550275,6.108906993056397e-06,4.3302451521361167e-07,-3.3929538898534203e-06,0.0006762171201854475,4.86114991181372e-05,-0.00037557839909393433,0.059098252251423414,0.004340852079534284,-0.032823816947683125,3.767758800970196,0.28733909500128424,-2.092654528257894,148.38341207809574,12.299736092362487,-82.41377317561495
0.04502251125562781,6.816045391116454e-06,4.839079981707115e-07,-3.785706305539702e-06,0.0007372870665537482,5.3102719404902655e-05,-0.00040949731656157647,0.06294443799913432,0.004634679225273994,-0.03496003066162778,3.9172326211306396,0.29976565066988914,-2.175673926032032,150.25533498474493,12.528158441085761,-83.45345967203836
0.04602301150575287,7.586266876459765e-06,5.394364918277755e-07,-4.213495759219442e-06,0.0008022822457488965,5.789432477541479e-05,-0.0004455963513571787,0.06694117508024533,0.004941059441446907,-0.03717986223600815,4.068550447779107,0.31241976617188777,-2.2597175052177603,152.06781342795253,12.754401641488931,-84.46013006202499
0.047023511755877934,8.423576343294623e-06,5.999170090109964e-07,-4.678546613024854e-06,0.0008713542737382988,6.299899450952928e-05,-0.00048395971265057094,0.07109027964181938,0.005260219424921336,-0.03948432037880584,4.221653006131332,0.3252992631861366,-2.344752343950311,153.82130510924281,12.978471704047642,-85.43403855801733
0.048024012006002995,9.332131353567207e-06,6.656693677299729e-07,-5.183168022422827e-06,0.0009446565548340956,6.842963372055636e-05,-0.0005246726028778466,0.07539350872590345,0.005592383695074689,-0.04187438097042883,4.37648147894294,0.33840196940642187,-2.430745774487594,155.5162664918017,13.20037463611534,-86.37543868467108
0.04902451225612806,1.0316243897561143e-05,7.370264161473024e-07,-5.729754914071221e-06,0.0010223442227580018,7.419937117860327e-05,-0.000567821185008129,0.07985256072690587,0.005937774599812849,-0.04435098731774396,4.532977505269871,0.3517257185383341,-2.51766538252171,157.15315280047673,13.420116441923271,-87.28458327885537
0.05002501250625312,1.1380382095731905e-05,8.143342553723534e-07,-6.320788931036346e-06,0.0011045740821633606,8.032155713994038e-05,-0.0006134925500642797,0.08446907584773321,0.006296612321586437,-0.04691505040742016,4.691083179228811,0.3652683502961425,-2.6054790064904862,158.73241802177682,13.637703122580486,-88.16172448965231
0.051025512756378184,1.2529171842233045e-05,8.979524600852447e-07,-6.958839345625432e-06,0.0011915045506131745,8.680976118238825e-05,-0.0006617746848968591,0.08924463655468588,0.006669114883403939,-0.049567449158582695,4.850741048757605,0.37902771039966987,-2.694154736888994,160.2545149038726,13.85314067607383,-89.00711377835752
0.052026013006503245,1.376739839059002e-05,9.882542969970539e-07,-7.64656394008727e-06,0.001283295601012856,9.367777004672207e-05,-0.0007127564402106493,0.09418076803111332,0.007055498154841697,-0.05230903067477802,5.011894114375673,0.3930016505711669,-2.7836609155810734,161.71989495659608,14.066435097267943,-89.8210019184797
0.05302651325662831,1.5100007881976326e-05,1.0856269411522883e-06,-8.386709855433492e-06,0.0013801087044964823,0.00010093958548409067,-0.0007665274988430493,0.09927893862982813,0.007455975858050802,-0.05514061049524971,5.174485827944449,0.40718802853218733,-2.8739661351108636,163.12900845144094,14.277592377905274,-90.6036389957409
0.054027013506753374,1.6532108816545076e-05,1.1904716900796195e-06,-9.18211440863229e-06,0.0014821067737652805,0.00010860942210944697,-0.0008231783442936525,0.10454056032427957,0.007870759573760822,-0.05806297284552503,5.338460091427795,0.42158470800046266,-2.965039238014323,164.48230442156233,14.486618506606062,-91.35527440807633
0.055027513756878435,1.806897346826817e-05,1.3032041757969107e-06,-1.0035705878425564e-05,0.0015894541068771251,0.00011670170526098607,-0.0008828002295043152,0.10996698915848589,0.008300058747280417,-0.061076870887312375,5.503761255652407,0.436189558686776,-3.056849316130752,165.78023066177698,14.693519468868358,-92.07615686563457
0.056028014007003496,1.9716039243734004e-05,1.424254574676549e-06,-1.095050426002008e-05,0.0017023163314857969,0.00012523106886558916,-0.0009454851458890315,0.11555952569572639,0.008744080694494836,-0.0641830269677097,5.67033411906827,0.45100045629183794,-3.1493657099143277,167.02323372856316,14.898301247067998,-92.76653439077732
0.05702851425712856,2.1478909985353095e-05,1.5540678151770844e-06,-1.1929621988902163e-05,0.001820860349528759,0.00013421235331026904,-0.0010113257926129171,0.1213194154659922,0.00920303060786027,-0.06738213286772358,5.838123926509052,0.46601528250316016,-3.242558007745618,168.21175894006078,15.100969820458623,-93.42665431807966
0.058029014507253625,2.3363357219420178e-05,1.6931037834471872e-06,-1.2976264634025032e-05,0.001945254282362214,0.00014366060331961407,-0.0010804155461196189,0.12724784941219625,0.009677111562395084,-0.07067485005009927,6.007076367952538,0.48123192499193074,-3.336396045243108,169.34625037607108,15.301531165171683,-94.05676329432984
0.059029514757378686,2.5375321349479697e-05,1.8418375268079257e-06,-1.4093731560617098e-05,0.002075667416342193,0.0001535910658392283,-0.0011528484299064559,0.13334596433514295,0.010166524521667924,-0.07406180990646147,6.1771375772810515,0.49664827740988876,-3.4308499045747314,170.4271508780571,15.499991254216416,-94.65710727852937
0.06003001500750375,2.7520912795440657e-05,2.000759455119366e-06,-1.5285416562858826e-05,0.0022122701488504408,0.0001640191879251637,-0.0012287190845466033,0.13961484333725613,0.010671468343782659,-0.07754361400376596,6.348254131041869,0.5122622393861987,-3.5258899137693898,171.45490204914313,15.696356057479857,-95.22793154189299
0.06103051525762881,2.980641307888554e-05,2.17037554003749e-06,-1.6554808466675213e-05,0.002355233934763854,0.00017496061463934245,-0.0013081227379576333,0.14605551626506727,0.01119213978736027,-0.08112083433006216,6.52037304720765,0.5280717165243253,-3.621486646028478,172.42994425411536,15.890631541726854,-95.7694806678488
0.062031015507753876,3.2238275855016407e-05,2.3512075121674256e-06,-1.790549170288994e-05,0.0025047312333662257,0.00018643118695096475,-0.0013911551759157152,0.152668960150462,0.011728733517517551,-0.08479401353956648,6.693441783936865,0.5440746203989085,-3.717610919037409,173.3527166194212,16.082823670600042,-96.28199855203803
0.06303151575787894,3.482312789168048e-05,2.5437930561189674e-06,-1.9341146850986917e-05,0.0026609354557010543,0.0001984469396438997,-0.001477912712814789,0.15945609965068588,0.01228144211184267,-0.08856366519704634,6.867408238334193,0.5602688685526372,-3.8142337942771394,174.22365703316973,16.27293840461986,-96.7657284023152
0.064032016008004,3.756776999591628e-05,2.7486860034704165e-06,-2.086555115372419e-05,0.0028240209123641968,0.00021102409923005785,-0.0015684921626700323,0.16641780748711052,0.012850456066367687,-0.09243027402151544,7.042220745210973,0.5766523844931255,-3.9113265763356977,175.04320214513172,16.460981701184547,-97.22091273874811
0.06503251625812906,4.047917788845936e-05,2.9664565236466536e-06,-2.248257900284396e-05,0.002994162761735073,0.00022417908186873753,-0.0016629908103649041,0.17355490488275677,0.013435963801537809,-0.09639429612923923,7.217828075845611,0.5932230976897854,-4.008860812219701,175.81178736673925,16.646959514570142,-97.64779339361783
0.06603301650825412,4.3564503026646844e-05,3.1976913127175e-06,-2.419620239612281e-05,0.0031715369586452374,0.00023792849129194803,-0.0017615063831411082,0.180868161998579,0.014038151668177646,-0.10045615927605187,7.39417943674399,0.6099789435707029,-4.106808290665882,176.52984687108608,16.830877795930487,-98.04661151141858
0.06703351675837918,4.683107337615736e-05,3.4429937801223113e-06,-2.6010491366004535e-05,0.0033563202034830476,0.00025228911673570194,-0.0018641370223307658,0.18835829836850806,0.014657203953454288,-0.10461626309898368,7.571224468399926,0.6269178635195127,-4.205141041452626,177.19781359292747,17.012742493297207,-98.41760754885789
0.06803401700850424,5.028639413202221e-05,3.702984233326744e-06,-2.7929614380057615e-05,0.0035486898917331737,0.00026727793087727436,-0.0019709812553301083,0.1960259833332522,0.015293302886837206,-0.10887497935719931,7.7489132440555535,0.644037804872272,-4.303831334711472,177.81611922868032,17.192559551579745,-98.76102127485659
0.06903451725862932,5.39381483893432e-05,3.978300060417759e-06,-2.9957838713499264e-05,0.003748824063949742,0.0002829120877784284,-0.002082137967814014,0.20387183647285953,0.015946628646055127,-0.11323265217224733,7.927196268461772,0.6613367209143359,-4.402851680238664,178.3851942364229,17.370334912565337,-99.07709177054869
0.07003501750875438,5.7794197764149474e-05,4.269595910642724e-06,-3.2099530794026115e-05,0.003956901356161837,0.00029920892083459924,-0.0021977063761906748,0.21189642803803713,0.01661735936304968,-0.11768959826761975,8.106024476638654,0.6788125708772318,-4.502174826806653,178.9054678358951,17.546074514919024,-99.36605742928151
0.07103551775887944,6.186258296482634e-05,4.577543872898647e-06,-3.435915651919207e-05,0.00417310095071014,0.00031618594073003865,-0.002317786000295733,0.22010027938023105,0.017305671129925926,-0.122246107207623,8.285349232635873,0.6964633199355338,-4.60177376147564,179.3773680084984,17.719784294183633,-99.62815595661554
0.0720360180090045,6.615152431454713e-05,4.9028336521775216e-06,-3.674128154657267e-05,0.004397602527513471,0.000333860833398914,-0.002442476636325182,0.2284838633804652,0.018011738004899927,-0.12690244163556008,8.465122328293127,0.7142869392037376,-4.701621708905083,179.80132149729593,17.89147018277979,-99.86362437032462
0.07303651825912956,7.066942222513665e-05,5.24617274397364e-06,-3.9250571556954006e-05,0.004630586215763944,0.00035225145799235735,-0.002571878330006325,0.23704760487693846,0.018735732018242864,-0.13165883751122234,8.645295982000565,0.7322814057331358,-4.801692130665243,180.1777538070121,18.061138110005952,-100.07269900039579
0.07403701850925462,7.542485762279613e-05,5.608286606658958e-06,-4.189179249078511e-05,0.004872232546049553,0.0003713758448514651,-0.0027060913500061377,0.24579188109138234,0.019477823178222345,-0.1365155043476934,8.82582283745918,0.7504447025086911,-4.901958724548682,180.50708920403304,18.22879400203833,-100.25561548902934
0.07503751875937968,8.042659232611632e-05,5.989918831832395e-06,-4.4669810758130474e-05,0.005122722402902933,0.0003912521934862435,-0.002845216161576326,0.25471702205417707,0.020238179477040406,-0.14147262544746314,9.006655962441275,0.7687748184459132,-5.002395423881818,180.78975071640642,18.39444378193097,-100.4126087906388
0.07603801900950474,8.568356937680376e-05,6.391831312648996e-06,-4.7589593422359145e-05,0.005382236977774995,0.00041189887056049403,-0.002989353400434371,0.2638233110282267,0.02101696689676843,-0.14653035813785267,9.187748847550862,0.787269748387731,-5.102976396836424,181.02616013384133,18.558093369615698,-100.54391317185096
0.0770385192596298,9.120491332354675e-05,6.814804410134975e-06,-5.065620835780688e-05,0.00565095772243228,0.00043333440788264054,-0.0031386038468799067,0.2731109849315935,0.021814349415278923,-0.15168883400575026,9.369055404984074,0.8059274931013686,-5.203676045741169,181.2167380077086,18.719748681902143,-100.64976221150593
0.07803901950975488,9.699993045944305e-05,7.259637117494541e-06,-5.387482438164623e-05,0.005929066302776752,0.00045557750040249253,-0.003293068400145729,0.28258023475889266,0.022630489012174224,-0.1569481591316581,9.5505299672896,0.8247460592752203,-5.3044690063931315,181.3619036510405,18.87941563247774,-100.73038880065697
0.07903951975987994,0.00010307810901341207,7.727147222414412e-06,-5.72507113601988e-05,0.006216744553086739,0.0004786470042139389,-0.0034528480529827116,0.2922312060014442,0.02346554567471196,-0.16230841432304977,9.732127286129112,0.8437234595157245,-5.40533014736934,181.46207513853076,19.03710013190772,-100.78602514257062
0.080040020010005,0.00010944911929601271,8.218171467372063e-06,-6.0789240289924247e-05,0.006514174430677897,0.0005025619345635756,-0.0036180438664780074,0.3020639990661853,0.024319677403727535,-0.16776965534703858,9.913802531037673,0.8628577123442388,-5.506234569338276,181.51766930653483,19.192808087635115,-100.8169027527267
0.08104052026013006,0.00011612281380008621,8.73356570795349e-06,-6.449588335331831e-05,0.006821537970982814,0.0005273414638652555,-0.0037887569451057687,0.31207866969334197,0.02519304021955335,-0.17333191316235685,10.095511288184174,0.882146842193914,-5.607157604371415,181.52910175306963,19.34654540398074,-100.82325245881832
0.08204102051025512,0.00012310922725664267,9.27420506918656e-06,-6.837621394995282e-05,0.007139017243048126,0.0005530049197205654,-0.003965088412009758,0.3222752293728589,0.026085788167934946,-0.17899519415064585,10.27720955913174,0.9015888794065695,-5.708074815254751,181.49678683781357,19.498317982143238,-100.80530440075174
0.08304152076038018,0.00013041857664640913,9.840984099895836e-06,-7.243590670288966e-05,0.007466794305447858,0.000579571782945223,-0.004147139384517139,0.33265364575958994,0.02699807332594407,-0.18475948034705691,10.458853759598156,0.9211818602295684,-5.808961994800312,181.42113768210666,19.648131720199043,-100.76328803064648
0.08404202101050524,0.00013806126116745336,1.0434816925084695e-05,-7.668073744069863e-05,0.0078050511626117135,0.0006070616856013889,-0.004335010949882724,0.34321384308724595,0.027930045807888527,-0.19062472967016272,10.640400718216307,0.9409238268126907,-5.909795165157687,181.30256616895053,19.79599251310236,-100.69743211283541
0.0850425212606303,0.00014604786215930142,1.1056637396350868e-05,-8.111658315531153e-05,0.008153969721567162,0.0006354944090358965,-0.004528804141263056,0.35395570258110376,0.02888185377121895,-0.19659087615118034,10.821807675294583,0.9608128272050096,-6.010550577125564,181.14148294300813,19.941906252685236,-100.60796472386461
0.08604302151075537,0.00015438914298395842,1.1707399240341097e-05,-8.574942193593975e-05,0.00851373174909398,0.0006648898819243894,-0.004728619913919568,0.3648790628694723,0.029853643422432432,-0.20265783016250424,11.003032281577294,0.980846915351765,-6.111204709463233,180.9382974106042,20.085878827657492,-100.49511325249334
0.08704352176088044,0.000163096048864248,1.2388076205250993e-05,-9.058533287928632e-05,0.008884518829290053,0.0006952681783213686,-0.004934559121650178,0.3759837203939199,0.030845559022973028,-0.20882547864555062,11.184032597005103,1.0010241510912377,-6.2117342682021235,180.69341773972496,20.22791612360675,-100.35910439969423
0.0880440220110055,0.00017217970667988112,1.3099662205375956e-05,-9.563049597628022e-05,0.009266512321547238,0.0007266495157161462,-0.005146722493448607,0.38726942981825974,0.03185774289512916,-0.21509368533791268,11.364767089475459,1.0213426001516273,-6.3121161859573425,180.40725086001802,20.368024022998437,-100.20016417865307
0.08904452226113056,0.0001816514247216613,1.3843171463718979e-05,-0.00010089119197555922,0.009659893318935938,0.0007590542530946968,-0.005365210610390724,0.3987359044362938,0.03289033542792784,-0.22146229099982623,11.545194633602991,1.0418003341479214,-6.412327621239163,180.08020246279264,20.506208405175784,-100.01851791476892
0.09004502251125562,0.00019152269240423902,1.4619638652661382e-05,-0.0001063738022239307,0.01006484260699725,0.0007925028890074094,-0.0055901238827472536,0.41038281657831727,0.03394347508302574,-0.2279311136399463,11.725274509479958,1.0623954305787757,-6.512345957764584,179.71267700101984,20.642475146359807,-99.81439024565408
0.09104552276138068,0.00020180517993781933,1.543011903270235e-05,-0.00011208480848403422,0.010481540622941413,0.0008270160596427383,-0.005821562527322138,0.42220979801638253,0.03501729840059733,-0.2344999487404353,11.904966401436651,1.0831259728233862,-6.612148803768843,179.30507768933177,20.77683011964933,-99.58800512113415
0.09204602301150575,0.00021251073795922962,1.6275688589273013e-05,-0.00011803079272943282,0.010910167415251245,0.0008626145369067396,-0.006059626545015853,0.4342164403683196,0.03611194000521958,-0.2411685694813607,12.08423039680183,1.103990050138363,-6.711713991316927,178.8578065040225,20.90927919502098,-99.33958580324797
0.0930465232616308,0.0002236513971227535,1.7157444167631188e-05,-0.0001242184369173574,0.011350902603689438,0.0008993192265085009,-0.0063044156986130214,0.44640229550051874,0.03722753261175374,-0.24793672696440477,12.263026984663126,1.124985757654606,-6.81101957561512,178.3712641830475,21.039828239329186,-99.0693548662476
0.09404702351175587,0.0002352393676511334,1.8076503605842637e-05,-0.00013065452273932875,0.01180392533970843,0.0009371511660514588,-0.006556029490793618,0.4587668759294716,0.03836420703122404,-0.25480415043588445,12.441317054627492,1.1461111963741815,-6.91004383432252,177.84585022602352,21.168483116306156,-98.77753419659838
0.09504752376188093,0.0002472870388471432,1.9034005865854458e-05,-0.00013734593134987963,0.012269414267261504,0.0009761315231305938,-0.006814567142367023,0.47130965522206913,0.03952209217669301,-0.2617705475090822,12.619061895581597,1.1673644731671924,-7.008765266862548,177.2819628942294,21.295249686561917,-98.46434499297891
0.09604802401200599,0.00025980697856613477,2.0031111162666984e-05,-0.00014429964307360147,0.01274754748401412,0.0010162815934355108,-0.0070801275707283685,0.4840300683946633,0.04070131506913401,-0.2688356043858881,12.796223194452258,1.188743700768657,-7.107162593734505,176.67999921060513,21.420133807584296,-98.13000776628091
0.09704852426213106,0.0002728119326499557,2.106900109160959e-05,-0.0001515227370907358,0.013238502502953914,0.0010576227988593925,-0.007352809368536325,0.4969275123108822,0.04190200084330027,-0.27599898607775175,12.972763034966874,1.2102469977753814,-7.205214755825059,176.0403549597524,21.543141333738905,-97.7747423396097
0.09804902451225612,0.00028631482432263746,2.2148878753726583e-05,-0.00015902239110153284,0.013742456214398418,0.0011001766856138253,-0.007632710782611758,0.5100013460782099,0.04312427275359108,-0.28326033662594624,13.148643896413827,1.2318724886428352,-7.302900913719798,175.36342468793424,21.664278116269173,-97.39876784828343
0.09904952476238119,0.00030032875354825303,2.3271968879279047e-05,-0.00016680588096959907,0.014259584848399115,0.0011439649223495046,-0.007919929693056533,0.5232508914433222,0.04436825217991477,-0.29061927932114234,13.323828652402922,1.2536183036820268,-7.4002004470147495,174.64960170307546,21.783550003296316,-97.00230273983368
0.10005002501250625,0.00031486699635133696,2.4439517949368234e-05,-0.0001748805803444506,0.014790063937540496,0.0011890092982827912,-0.008214563592591711,0.5366754331861812,0.045634058633548476,-0.29807541692229333,13.498280569625797,1.2754825790563749,-7.497092953627889,173.8992780747624,21.900962839819353,-96.5855647740053
0.10105052526263131,0.0003299430041002668,2.565279431568688e-05,-0.00018325396026349538,0.015334068280133182,0.00123533172132815,-0.008516709566114595,0.5502742195128925,0.046921809762994926,-0.3056283318748311,13.671963306616354,1.2974634567785872,-7.593558249110692,173.1128446342429,22.016522467715088,-96.14877102275649
0.10205102551275637,0.0003455704027539948,2.6913088318403678e-05,-0.00019193358873365984,0.01589177190379947,0.0012829542162364341,-0.008826464270473736,0.5640464624473168,0.04823162135983594,-0.3132775865281731,13.844840912511165,1.3195590847075334,-7.689576365959631,172.2906909744262,22.13023472573817,-95.69213787025852
0.10305152576288143,0.00036176299207252614,2.8221712402187348e-05,-0.0002009271302928803,0.016463348029450393,0.001331898922739037,-0.009143923914461437,0.5779913382214454,0.0495636073645829,-0.32102272335253923,14.016877825809917,1.341767616545118,-7.785127552927713,171.43320544988327,22.242105449520988,-95.21588101289598
0.10405202601300649,0.00037853474479153506,2.9580001230375968e-05,-0.00021024234555167473,0.017048969035652915,0.0013821880936978968,-0.009469184239022843,0.5921079876645309,0.05091787987252415,-0.32886326515508124,14.188038873135817,1.3640872118331588,-7.880192274336015,170.54077517684658,22.35214047157377,-94.72021545926667
0.10505252626313155,0.0003958998057615033,3.098931179729705e-05,-0.0002198870907150117,0.01764880642338594,0.0014338440932613488,-0.009802340497681087,0.60639551659098,0.052294549139569095,-0.33679871529532124,14.358289267996021,1.3865160359502582,-7.974751209385195,169.61378603321023,22.46034562128453,-94.20535553018179
0.10605302651325663,0.00041387249105177723,3.2451023538744973e-05,-0.00022986931708469322,0.018263030781184065,0.0014868893950258288,-0.010143487437177736,0.6208529961870027,0.05369372358808923,-0.34482855789990174,14.527594609542053,1.409052260108679,-8.068785251467009,168.65262265852965,22.56672672491909,-93.67151485866563
0.10705352676338169,0.0004324672870199256,3.3966538440620974e-05,-0.00024019707054246663,0.018891811750667765,0.0015413465802034273,-0.010492719278327872,0.6354794633960256,0.055115509812756265,-0.35295225807664765,14.695920881330231,1.4316940613512215,-8.162275507475862,167.6576684540218,22.671289605621045,-93.11890638995574
0.10805402701350675,0.0004516988493467853,3.553728114574174e-05,-0.0002508784910140777,0.01953531799245862,0.001597238335795274,-0.010850129697089048,0.6502739213028569,0.0565600125863767,-0.36116926212793643,14.863234450082086,1.4544396225480924,-8.255203297120303,166.6293055825657,22.77404008341184,-92.54774238150303
0.10905452726363181,0.000471582002037582,3.716469905882258e-05,-0.0002619218119144824,0.020193717152478637,0.0016545874527707702,-0.011215811805843544,0.6652353395166175,0.05802733486572367,-0.3694789977633822,15.029502064444765,1.4772871323937846,-8.347550152234575,165.5679149687012,22.874983975190666,-91.95823440297168
0.11005502751375687,0.0004921317363895076,3.885026244964104e-05,-0.00027333535957442794,0.020867175828632196,0.0017134168242526591,-0.011589858134893164,0.680362654552428,0.05951757779736545,-0.37788087431182843,15.194690853751508,1.5002347854039526,-8.439297816090122,164.47387629863024,22.974127094734552,-91.35059333623899
0.11105552776388193,0.0005133632099261355,4.059546455438634e-05,-0.0002851275526486158,0.02155585953786936,0.0017737494437079168,-0.011972360614165855,0.6956547702118545,0.06103084072349078,-0.38637428293265147,15.35876832678201,1.5232807819122802,-8.530428242707131,163.34756802021593,23.071475252698296,-90.72502937539545
0.11205602801400699,0.0005352917452990604,4.240182167520128e-05,-0.0002973069015056597,0.022259932683629587,0.0018356084031444899,-0.01236341055513355,0.7111105579621165,0.06256722118773136,-0.394958596826378,15.521702370522867,1.5464233280673647,-8.62092359616603,162.18936734298316,23.16703425661452,-90.08175202674502
0.11305652826413205,0.0005579328291571344,4.427087327792146e-05,-0.0003098820076000476,0.02297955852366417,0.0018990168913138434,-0.012763098632940442,0.7267288573140495,0.06412681494098084,-0.4036331714446083,15.683461248928007,1.5696606358295822,-8.710766249919047,160.99965023811845,23.260809910893627,-89.42097010880487
0.11405702851425711,0.0005813021109836854,4.620418208801865e-05,-0.0003228615628263198,0.02371489913823661,0.001963998191919343,-0.013171514868741081,0.74250847619883,0.06570971594721087,-0.41239734469925443,15.844013601679093,1.592990922967971,-8.7999387861017,159.7787914384695,23.352808016823836,-88.74289175230524
0.11505752876438219,0.0006054154019020937,4.820333418475345e-05,-0.00033625434885567316,0.024466115398699365,0.002030575681830455,-0.013588748612247575,0.7584481913434618,0.06731601638928418,-0.4212504371710882,16.003328442945953,1.616412413057098,-8.888423994844352,158.52716443854575,23.443034372571162,-88.04772440018989
0.11605802901450725,0.000630288673450097,5.026993909354313e-05,-0.0003500692364551959,0.025233366936445793,0.002098772829302758,-0.01401488852448518,0.7745467486450127,0.0689458066747641,-0.430191752317598,16.161375160147045,1.6399233354739409,-8.976204873583718,157.2451414945184,23.5314947731794,-87.33567480761549
0.11705852926463231,0.0006559380563232097,5.2405629876550966e-05,-0.0003643151847899506,0.02601681211223622,0.002168613192203779,-0.014450022560755626,0.7908028635436232,0.07059917544172141,-0.43922057668016024,16.318123512709764,1.6635219253947566,-9.063264626374393,155.93309362422002,23.61819501057018,-86.60694904195229
0.11805902951475737,0.0006823798390876185,5.461206322150216e-05,-0.00037900124070810076,0.026816607985896662,0.002240120416244628,-0.014894237953807465,0.807215221394262,0.07227620956453785,-0.44833618009051773,16.473543630831,1.687206423791961,-9.14958666320038,154.59139060714443,23.703140873542896,-85.86175248278373
0.11905952976488243,0.000709630466862936,5.689091952873279e-05,-0.00039413653800929836,0.02763291028638907,0.002313318233217453,-0.015347621197212778,0.8237824778372486,0.07397699415970628,-0.4575378158765713,16.627606014237468,1.7109750774309997,-9.235154599286608,153.2204009844474,23.786338147774757,-85.10028982190624
0.1200600300150075,0.0007377065399751815,5.9243902996477365e-05,-0.0004097302966965344,0.028465873382251913,0.0023882304592386895,-0.015810258028949524,0.8405032591675328,0.07570161259162836,-0.46682472106748196,16.780281530946166,1.7348261388672253,-9.31995225441048,151.82049205894617,23.867792615820772,-84.32276506332974
0.12106053026513255,0.0007666248125803504,6.167274170440052e-05,-0.00042579182221165457,0.029315650252409696,0.0024648809929981165,-0.016282233415188852,0.857376162702732,0.0774501464784083,-0.47619611659808275,16.931541416024807,1.75875786644277,-9.403963652213344,150.3920298951195,23.94751005711376,-83.52938152327744
0.12206103051525762,0.0007964021912589558,6.41791876953791e-05,-0.00044233050465475245,0.030182392457350302,0.0025432938140137074,-0.01676363153428664,0.8743997571499301,0.07922267569764406,-0.4856512075126026,17.08135727035218,1.7827685242834226,-9.487173019512097,148.93537931910762,24.02549624796431,-82.7203418301857
0.12306153076538268,0.000827055733581901,6.676501705554055e-05,-0.00045935581798763785,0.031066250110668967,0.002623492980892287,-0.017254535760978757,0.8915725829712343,0.08101927839221523,-0.49518918316770094,17.229701059378666,1.8068563822955013,-9.569564785610625,147.45090391871236,24.10175696156084,-81.89584792470416
0.12406203101550775,0.0008586026466480438,6.94320299925623e-05,-0.00047687731922158684,0.031967371850977346,0.0027055026295959607,-0.01775502865077903,0.9088931527480897,0.0828400309760677,-0.5048092174348122,17.376545111886585,1.8310197161627295,-9.651123581611404,145.938966043397,24.17629796796955,-81.05610105969556
0.1250625312656328,0.0008910602855938327,7.21820509122396e-05,-0.0004949046475895741,0.032885904814176865,0.0027893469717143516,-0.018265191924579528,0.9263599515443566,0.08468500813999541,-0.5145104689018026,17.52186211875065,1.8552568073431082,-9.731834239726957,144.39992680428662,24.249125034134455,-80.20130180023625
0.12606303151575787,0.0009244461520753649,7.501692849332624e-05,-0.000513447523703194,0.03382199460609472,0.0028750502927426132,-0.01878510645345237,0.9439714372681426,0.08655428285741859,-0.5242920810739354,17.665625131698395,1.8795659430657947,-9.811681792591441,142.83414607416753,24.320243923877353,-79.33165002361537
0.12706353176588292,0.0009587778927232382,7.79385357606549e-05,-0.0005325157486944663,0.034775785275481655,0.002962636950365232,-0.0193148522436523,0.9617260410324007,0.08844792639015958,-0.5341531825741516,17.80780756207055,1.9039454163279745,-9.890651472572124,141.2419824874879,24.38966039789784,-78.44734491933579
0.128064032016008,0.0009940732975705472,8.094877015654172e-05,-0.00055211920334273,0.03574741928736976,0.0030521313727455966,-0.019854508421819402,0.9796221675142752,0.09036600829421454,-0.544092887342654,17.948383179581526,1.9283935258917364,-9.968728711080933,139.62379344035705,24.457380213773337,-77.54858498911314
0.12906453226613307,0.0010303502984543975,8.404955361048248e-05,-0.0005722678471868254,0.036737037496789665,0.003143558056821361,-0.020404153220381284,0.9976581953132195,0.09230859642552294,-0.5541102948358109,18.087326111079804,1.9529085762809457,-10.04589913788597,137.97993509054632,24.523409125959038,-76.6355680468768
0.13006503251625812,0.0010676269673912872,8.724283260714477e-05,-0.0005929717176227635,0.037744779122845414,0.0032369415666055647,-0.02096386396315403,1.0158324773078646,0.09427575694573331,-0.5642044902243631,18.22461083930836,1.9774888777781237,-10.122148580423046,136.31076235748813,24.587752885787935,-75.70849121876904
0.1310655327663832,0.0011059215149267164,9.05305782526626e-05,-0.0006142409289870807,0.03877078172314602,0.003332306531493537,-0.021533717051141127,1.0341433410116498,0.09626755432796634,-0.5743745445909465,18.360212201665075,2.0021327464213146,-10.1974630631072,134.61662892227687,24.650417241470855,-74.76755094314551
0.13206603301650824,0.0011452522884593801,9.391478633923951e-05,-0.0006360856716260787,0.03981518116859236,0.003429677644575559,-0.022113787948529924,1.0525890889272145,0.0982840513625744,-0.5846195151269243,18.494105388963195,2.02683850400097,-10.271828806644216,132.89788722766818,24.71140793809638,-73.81294297057511
0.1330665332666333,0.0011856377705402987,9.739747740806465e-05,-0.0006585162109511407,0.04087811161851814,0.0035290796609552893,-0.02270415116888459,1.0711679988995422,0.1003253091628981,-0.5949384453285272,18.626265944191708,2.0516044780568143,-10.345232227342176,131.15488847807933,24.770730717630908,-72.84486236383997
0.13406703351675836,0.0012270965771472434,0.00010098069681054924,-0.0006815428864803307,0.041959705496183865,0.0036305373960739584,-0.023304880261535203,1.0898783244678723,0.10239138717102003,-0.6053303651923104,18.756669761275788,2.076429001874725,-10.417659936422929,129.38798263958918,24.82839131891866,-71.86350349793548
0.13506753376688344,0.0012696474559348084,0.0001046665147678883,-0.0007051761108664622,0.04306009346462235,0.0037340757240403146,-0.023916047798162112,1.1087182952163648,0.10448234316351472,-0.6157942914099142,18.885293083837233,2.101310414483605,-10.489098739333686,127.59751843993804,24.88439547768162,-70.8690600600703
0.13606803401700848,0.0013133092844604755,0.00010845702642895316,-0.000729426368911836,0.04417940440283455,0.003839719575966319,-0.024537725359574797,1.127686117123529,0.10659823325719622,-0.6263292275621424,19.01211250395485,2.1262470606522585,-10.5595356350585,125.78384336852797,24.93874892651958,-69.86172504966642
0.13706853426713356,0.0013581010683870324,0.0001123543519265217,-0.0007543042165698444,0.045317765382334896,0.003947493938308616,-0.025169983522684954,1.146779972910408,0.108739111914862,-0.6369341643123473,19.13710496092491,2.1512372908862654,-10.628957815429791,123.94730367642215,24.99145739491016,-68.84169077835885
0.13806903451725863,0.0014040419396616761,0.00011636063643185,-0.0007798202799336246,0.04647530164404402,0.0040574238512157135,-0.02581289184767237,1.1659980223875215,0.11090503195103378,-0.6476080795991246,19.260247740021537,2.1762794614248557,-10.697352664439892,122.08824437634593,25.042526609208743,-67.80914886999602
0.13906953476738368,0.001451151154672173,0.00012047805020759357,-0.0008059852542119691,0.047652136575528664,0.004169534406880941,-0.0264665188653438,1.1853384028005713,0.11309604453769567,-0.6583499388283242,19.381518471257156,2.2013719342377827,-10.764707757552548,120.20700924268556,25.091962292648535,-66.76429026063968
0.14007003501750875,0.0014994480923803987,0.0001247087886590823,-0.0008328099026926732,0.04884839168858658,0.004283850747901137,-0.02713093206468333,1.2047992291749037,0.11531219921002862,-0.6691586950643661,19.500895128142936,2.2265130770222017,-10.831010861014478,118.30394081148941,25.139770165340533,-65.7073051985646
0.1410705352676338,0.0015489522524336143,0.0001290550723839551,-0.0008603050556935209,0.05006418659717592,0.004400398065641079,-0.027806197880594172,1.224378594658733,0.11755354387214197,-0.6800332892208716,19.61835602644915,2.2517012631995414,-10.896249931166862,116.37938038046669,25.185955944273527,-64.63838324425895
0.14207103551775888,0.0015996832532538295,0.0001335191472201606,-0.0008884816095010897,0.051299638995687465,0.004519201598603634,-0.028492381681830756,1.2440745708651202,0.11982012480280203,-0.6909726502506013,19.73387982296564,2.2769348719123763,-10.96041311375688,114.43366800898899,25.230525343314106,-63.55771327042423
0.14307153576788392,0.0016516608301055812,0.0001381032842923294,-0.0009173505252975789,0.05255486463755866,0.004640286630805676,-0.02918954775912072,1.2638852082127163,0.12211198666115754,-0.7019756953347102,19.847445514262233,2.3022122880213094,-11.02348874324923,112.4671425180892,25.273484073206692,-62.46548346197517
0.144072036018009,0.0017049048331424662,0.00014280978005652258,-0.0009469228280758307,0.05382997731422772,0.004763678490159692,-0.02989775931347593,1.2838085362652607,0.12442917249246144,-0.7130413300713047,19.959032435449142,2.3275319021018386,-11.085465342137683,110.48014149046116,25.31483784157345,-61.3618813160394
0.14507253626813404,0.0017594352254327974,0.00014764095634336373,-0.0009772096055427578,0.05512508883442761,0.004889402546861136,-0.030617078444691907,1.3038425640698383,0.1267717237337901,-0.7241684486633172,20.068620258937457,2.3528921104412364,-11.146331620256577,108.47300127046088,25.3545923529144,-60.24709364195834
0.14607303651825912,0.0018152720809646874,0.00015259916039956007,-0.0010082220070113449,0.056440309003817336,0.005017484211781516,-0.03134756614003504,1.3239852804939019,0.12913968021975944,-0.7353559341056913,20.176188993199474,2.3782913150354204,-11.206076474092342,106.44605696410561,25.392753308607315,-59.12130656128629
0.1470735367683842,0.0018724355826309083,0.00015768676492781646,-0.001039971242281419,0.05777574560495038,0.005147948934867172,-0.032089282263116706,1.3442346545610442,0.13153308018823742,-0.746602658371874,20.281718981529128,2.4037279235858318,-11.264688986095019,104.39964243907473,25.4293264069078,-57.98470550779106
0.14807403701850924,0.0019309460201938943,0.00016290616812515148,-0.0010724685805093871,0.05913150437757866,0.005280822203543812,-0.03284228554295389,1.36458863578554,0.13395196028605402,-0.7579074825996217,20.385190900802534,2.429200349496311,-11.322158423989842,102.33409032470799,25.464317342949244,-56.837475227453325
0.14907453726863432,0.001990823788231153,0.0001682597937196169,-0.0011057253490670985,0.06050768899929039,0.0054161295411267055,-0.03360663356321526,1.3850451545056364,0.1363963555747076,-0.7692692572761162,20.486585760238235,2.4547070118699668,-11.378474240088682,100.24973201200791,25.497731808742845,-55.67979977846739
0.15007503751875936,0.002052089384061502,0.00017375009100543062,-0.0011397529323900497,0.06190440106648116,0.005553896505236644,-0.034382382751652334,1.4056021222156097,0.13886629953606822,-0.7806868224223911,20.58588490015776,2.480246335506055,-11.433626070601614,98.14689765363784,25.529575493177585,-54.51186253124074
0.15107553776888444,0.0021147634056524023,0.000179379534876526,-0.0011745627708150991,0.063321740075657,0.005694148686221579,-0.03516958836971489,1.4262574318965815,0.14136182407807812,-0.7921590077770704,20.68306999074599,2.505816750896854,-11.487603734948456,96.02591616392287,25.559854082020262,-53.33384616839385
0.15207603801900949,0.0021788665495087456,0.000185150625858524,-0.001210166359407872,0.06475980340506751,0.005836911705583965,-0.03596830450234993,1.4470089583460874,0.1438829595404488,-0.8036846329794163,20.778123030811575,2.5314166942245326,-11.540397235070252,93.88711521884974,25.58857325791547,-52.14593268476082
0.15307653826913456,0.0022444196085434245,0.00019106589013913417,-0.0012465752467800556,0.06621868629666854,0.00598221121441381,-0.03677858404798347,1.4678545585064133,0.1464297347003549,-0.8152625077516888,20.871026346547353,2.5570446073580375,-11.591996754740837,91.73082125606663,25.615738700385588,-50.94830338738889
0.1540770385192596,0.002311443469930012,0.00019712787959699047,-0.0012838010338967502,0.06769848183841311,0.0061300728918274395,-0.03760047870868474,1.4887920717916865,0.14900217677812555,-0.8268914320808167,20.96176259029082,2.582698937849956,-11.642392658878327,89.55735947488324,25.641356085830807,-49.741138895538256
0.15507753876938468,0.002379959112937866,0.00020333917182892563,-0.0013218553728740665,0.06919928094686857,0.006280522443411911,-0.038434038980511606,1.5098193204137227,0.15160031144293146,-0.8385701963993761,21.05031473928447,2.6083781389333947,-11.691575492856668,87.36705383627091,25.66543108752913,-48.5246191406828
0.15607803901950976,0.002449987606750017,0.00020970237017569292,-0.0013607499657671527,0.07072117235015989,0.006433585599675171,-0.039279314144036986,1.5309341097066405,0.1542241628184703,-0.8502975817658859,21.136666094436322,2.6340806695188537,-11.739535981817157,85.16022706286245,25.687969375636328,-47.2989233665093
0.1570785392696348,0.002521550108264126,0.00021622010374613838,-0.001400496563348824,0.07226424257123683,0.006589288114501868,-0.040136352255055435,1.552134228450228,0.15687375348864754,-0.8620723600444077,21.220800279080258,2.659804994191106,-11.786265029979978,82.93720063895195,25.708976617186003,-46.064230128918076
0.15807903951975988,0.002594667859876864,0.0002228950274398305,-0.0014411069638789826,0.07382857591146447,0.006747655763614862,-0.04100520013546893,1.5734174491920692,0.1595491045032552,-0.87389329408346,21.302701237736436,2.6855495832060656,-11.831753719955676,80.69829481049578,25.72845847608952,-44.82071729602241
0.15907953976988493,0.0026693621872520275,0.0002297298219681529,-0.001482593011865007,0.07541425443453566,0.006908714343042431,-0.04188590336435176,1.5947815285684372,0.16225023538364722,-0.8857591378942435,21.38235323487181,2.711312912487664,-11.87599331205675,78.44382858511115,25.746420613136106,-43.56856204814922
0.16008004002001,0.0027456544970727065,0.00023672719387386477,-0.0015249665968132754,0.07702135795070336,0.007072489667591116,-0.042778506269193134,1.6162242076239348,0.16497716412841126,-0.8976686368281763,21.45974085366046,2.7370934636247286,-11.918975243609127,76.174119732077,25.762868685992714,-42.30794087783806
0.16108054027013505,0.0028235662747778272,0.00024388987554913616,-0.0015682396519720234,0.07864996400133335,0.007239007569324287,-0.043683051917317264,1.637743212129904,0.1677299072190379,-0.9096205277537374,21.534848994744035,2.7628897238678487,-11.960691128263708,73.88948478233422,25.77780834920413,-41.0390295898426
0.16208104052026012,0.002903119082283399,0.0002512206252520631,-0.0016124241530656965,0.08030014784377416,0.007408293896046352,-0.04459958210748034,1.6593362529015894,0.17050847962558646,-0.9216135392326275,21.607662874992187,2.788700186126266,-12.001132755307914,71.59023902848435,25.791245254192955,-39.76200330112892
0.16308154077038517,0.0029843345556887658,0.00025872222712166796,-0.0016575321170209758,0.08197198243654447,0.007580374509792663,-0.04552813736164315,1.6810010261140602,0.17331289481234763,-0.9336463916952333,21.678168026262995,2.8145233489647263,-12.040292088977147,69.27669652479182,25.80318504925957,-38.47703644087685
0.16408204102051024,0.003067234402968206,0.0002663974911913916,-0.0017035756006846692,0.0836655384248358,0.007755275285325062,-0.046468756916919235,1.7027352136169005,0.1761431647435034,-0.945717797615409,21.74635029416341,2.840357716600379,-12.078161267766383,66.94917008718096,25.813633379582143,-37.184302750479404
0.16508254127063532,0.003151840401648148,0.00027424925340108127,-0.0017505666995336108,0.08538088412632958,0.007933022108633093,-0.04742147871769756,1.7245364832476444,0.1789992998887833,-0.9578264616845634,21.812195836809547,2.8662017988996307,-12.114732603741663,64.60797129323925,25.822595887216686,-35.88397528354265
0.16608304152076037,0.0032381743964703695,0.00028228037560748233,-0.0017985175463767775,0.08711808551732755,0.008113640875440907,-0.048386339407939113,1.7464024891439798,0.18188130922911763,-0.9699710809850605,21.87569112358736,2.8920541113750367,-12.149998581851632,62.253410482214186,25.83007821109696,-34.57622640588593
0.16708354177088544,0.0033262582970414655,0.0002904937455932371,-0.0018474403100497752,0.0888772062191939,0.008297157489719783,-0.04936337432364682,1.7683308720547113,0.18478920026228812,-0.9821503451629319,21.93682293391279,2.917913175182162,-12.183951859239015,59.885796755016386,25.83608598703454,-33.26122779554228
0.1680840420210105,0.0034161140754688946,0.00029889227707439905,-0.0018973471941018745,0.09065830748510799,0.008483597862206309,-0.050352617485507706,1.7903192596494781,0.1877229790085745,-0.9943629365998972,21.995578355992354,2.943777517116463,-12.216585264552238,57.50543797421685,25.840624847718836,-31.939150442757335
0.16908454227113556,0.0035077637639839227,0.00030747890970646497,-0.0019482504354757686,0.09246144818712691,0.00867298790892627,-0.0513541015917075,1.8123652668272345,0.19068265001639892,-1.0066075305846975,22.051944785583544,2.969645669610166,-12.247891797256857,55.11264076404849,25.84370042271702,-30.610164649990526
0.1700850425212606,0.0036012294525517687,0.00031625660908893267,-0.0020001623031802203,0.09428668480355547,0.0088653535497241,-0.05236785801091563,1.8344664960234895,0.19366821636796672,-1.018882795483741,22.105909924755156,2.9955161707291316,-12.277864626947155,52.70771051040568,25.84531833847406,-29.27444003191421
0.17108554277138568,0.003696533286469267,0.00032522836676839056,-0.002053095096955776,0.09613407140662393,0.009060720706798035,-0.05339391677544131,1.8566205375162994,0.1966796796849038,-1.0311873929110507,22.15746178064786,3.021387564169736,-12.306497092657597,50.29095136084463,25.845484218312745,-27.932145515414053
0.17208604302151073,0.003793697463950341,0.0003343972002401426,-0.0021070611459337155,0.09800365965047063,0.00925911530324088,-0.054432306574559046,1.878824969731029,0.19971704013389147,-1.0435199778975377,22.206588664234523,3.047258399255746,-12.333782702174418,47.86266622458284,25.844203682433648,-26.583449339588977
0.1730865432716358,0.003892744233699603,0.0003437661529483756,-0.0021620728072884016,0.09989549875942982,0.009460563261586454,-0.055483054748003545,1.9010773595438684,0.20278029643229806,-1.0558791990595737,22.253279189080605,3.073127230935191,-12.359715131347091,45.42315677249945,25.841482347915157,-25.22851905575133
0.17408704352176088,0.003993695892474382,0.000353338294284875,-0.0022181424648832,0.10180963551662192,0.009665090502361608,-0.056546187279632565,1.923375262584101,0.20586944585380687,-1.0682636987668759,22.297522270104714,3.098992619777237,-12.384288223399947,42.972723437135194,25.837325828713453,-23.867521527426582
0.17508754377188593,0.004096574782635494,0.00036311671958629325,-0.0022752825279101535,0.10374611425284665,0.009872722942643948,-0.057621728791258084,1.9457162235351513,0.20898448423404178,-1.0806721133097095,22.339307122338873,3.124853131969069,-12.407495988243578,40.51166541269162,25.831739735662506,-22.500622930353263
0.176088044022011,0.004201403289687009,0.0003731045501299778,-0.0023335054295235435,0.10570497683577573,0.010083486494625114,-0.05870970253664382,1.9680977764343601,0.212125405976189,-1.093103073065391,22.378623259689043,3.150707339312754,-12.429332601786431,38.04028065503339,25.824729676474092,-21.127988752483567
0.17708854427213605,0.0043082038398053945,0.00038330493312836294,-0.002392823625467541,0.10768626265944631,0.010297407064179746,-0.05981013039566964,1.9905174449715581,0.2152922040566162,-1.105555202664113,22.415460493695473,3.1765538192221223,-12.449792405246297,35.55886588168506,25.816301255737798,-19.74978379398252
0.17808904452226113,0.00441699889735826,0.00039372104172193307,-0.0024532495926981018,0.10969000863405143,0.010514510549440042,-0.06092303286866135,2.0129727427863537,0.21848487003048805,-1.1180271211540695,22.44980893229327,3.2023911547196438,-12.46886990446195,33.06771657183387,25.806460074920995,-18.3661721672287
0.17908954477238617,0.0045278109624130435,0.0004043560749707613,-0.002514795827999255,0.11171624917602833,0.010734822839375921,-0.0620484290708853,2.035461173764231,0.22170339403737926,-1.1305174421659006,22.481658978572572,3.2282179344332977,-12.486559769204476,30.567126966328246,25.795211732368845,-16.977317296813638
0.18009004502251125,0.004640662568235925,0.0004152132578446303,-0.0025774748465939743,0.1137650161984425,0.010958369812380879,-0.0631863367272078,2.057980232331355,0.22494776480688422,-1.1430247740764417,22.511001329539226,3.2540327525934516,-12.502856832488963,28.05739006767761,25.782561823304352,-15.583381919542578
0.1810905452726363,0.004755576278781255,0.00042629584121173876,-0.00264129918074978,0.11583633910166519,0.01118517733486333,-0.06433677216691726,2.080527403748178,0.2282179696642229,-1.1555477201717896,22.537826974875014,3.2798342090297354,-12.517756089885946,25.538797640053815,25.76851593982826,-14.184528084433541
0.18209104552276137,0.004872574686171795,0.0004376071018260021,-0.002706281378379238,0.11793024476434573,0.011415271259843698,-0.06549975031871004,2.103100164401781,0.2315139945358445,-1.1680848788096736,22.562127195698196,3.3056209091679083,-12.531252698832953,23.01164020928973,25.753079670919174,-12.780917152718157
0.18309154577288644,0.004991680408170095,0.0004491503423129515,-0.0027724340016355327,0.12004675753467443,0.011648677425556987,-0.0666752847058379,2.1256959820969805,0.2348358239550277,-1.1806348435811373,22.583893563323915,3.3313914640267455,-12.543341977946021,20.476207062880313,25.736258602433452,-11.372709797840983
0.1840920460230115,0.005112916085641229,0.0004609288911542365,-0.0028397696255032428,0.12218589922193757,0.011885421654061083,-0.06786338744141741,2.148312316346201,0.23818344106747735,-1.193196203471542,22.60311793802455,3.357144490214909,-12.554019406331275,17.932786249981014,25.71805831710526,-9.960066005460199
0.18509254627313657,0.005236304380007246,0.00047294610267073684,-0.0029083008363845167,0.12434768908836047,0.012125529749850523,-0.06906406922389964,2.1709466186580957,0.24155682763691885,-1.205767543020865,22.619792467790198,3.382878609927815,-12.563280622896324,15.381664581409922,25.698484394546586,-8.543145073446901
0.1860930465232616,0.005361867970693624,0.00048520535700429185,-0.0029780402306808043,0.12653214384124056,0.012369027498476003,-0.07027733933270058,2.1935963328249355,0.24495596405068876,-1.2183474424833196,22.633909587089118,3.4085924509445187,-12.57112142566195,12.823127629646194,25.67754241124719,-7.122105611885559
0.1870935467733867,0.0054896295525679265,0.0004977100600980465,-0.0030490004133702604,0.12873927762536572,0.012615940665169348,-0.07150320562399064,2.2162588952087505,0.24838082932532216,-1.2309344779862839,22.645462015628073,3.4342846466245835,-12.5775377710735,10.257459728830192,25.655237940574647,-5.697105543073867
0.18809404702351173,0.005619611833371076,0.0005104636436754283,-0.0031211939965810434,0.13096910201572004,0.012866294993474152,-0.0727416745266426,2.2389317350262328,0.2518314011121376,-1.2435272216885358,22.65444275711281,3.459953835904954,-12.582525773312481,7.684943974764593,25.631576552774334,-4.268302101522913
0.1890945472736368,0.005751837531141448,0.0005234695652177536,-0.0031946335981606283,0.13322162601047272,0.013120116203882003,-0.07399275103833837,2.2616122746324083,0.2553076557028182,-1.256124241937808,22.66084509800847,3.4855986632968374,-12.586081703608054,5.105862224913167,25.60656381496942,-2.835851833957051
0.19009504752376186,0.005886329371632068,0.0005367313079404716,-0.0032693318402412953,0.13549685602425143,0.013377429992474264,-0.07525643872183242,2.284297929803044,0.2588095680349901,-1.2687241034276433,22.66466260630006,3.5112177788825707,-12.588201989548581,2.5204950984012555,25.580205291160862,-1.3999105993134364
0.19109554777388693,0.0060231100857212625,0.0005502523807680546,-0.00334530134780197,0.13779479588169755,0.01363826202956947,-0.0765327397013725,2.3069861100158433,0.2623371116977979,-1.2813253673535672,22.665889130252665,3.5368098383125006,-12.588883214393126,-0.07087802398403653,25.552506542227444,0.0393664312568518
0.19209604802401198,0.006162202406816946,0.0005640363183075311,-0.0034225547472265384,0.14011544681130123,0.013902637958376245,-0.07782165465927546,2.3296742187303803,0.26589025893747575,-1.2939265915685714,22.66451879717223,3.562373502801857,-12.588122116383019,-2.667978999794812,25.523473125925726,1.4818247743903115
0.19309654827413705,0.006303629068254911,0.0005780866808206804,-0.0035011046648588317,0.1424588074395175,0.01417058339365189,-0.0791231828326594,2.3523596536667912,0.2694689806629171,-1.3065263307379045,22.660546012165646,3.587907439127624,-12.585915588053332,-5.2705309249205925,25.493110596890084,2.927310634508977
0.19409704852426213,0.006447412800691366,0.000592407054194881,-0.003580963725554407,0.1448248737851597,0.014442123920366437,-0.08043732201032965,2.3750398070832515,0.27307324645124026,-1.3191231364931768,22.653965456901354,3.6134103196254217,-12.582260675544415,-7.878258133589753,25.461424506632685,4.375670903822922
0.19509754877438718,0.006593576329489974,0.0006070010499126289,-0.0036621445512292883,0.14721363925407055,0.014717285092372355,-0.08176406852981896,2.3977120660521787,0.276703024553351,-1.3317155575857755,22.64477208836972,3.638880822186372,-12.577154577913458,-10.490886198369779,25.428420403543488,5.82675316232816
0.19609804902451225,0.0067421423721037545,0.000621872305019726,-0.003744659759405838,0.1496250946340691,0.014996092431079805,-0.08310341727458112,2.420373812735213,0.2803582818995019,-1.344302140039588,22.63296113764344,3.664317630253983,-12.570594646445965,-13.10814193016516,25.394103832890266,7.280405677807806
0.1970985492746373,0.0068931336354519715,0.0006370244820921415,-0.003828521961755857,0.1520592280901718,0.015278571424137412,-0.0844553616713365,2.4430224246569585,0.2840389841048487,-1.356881427303038,22.618528108638,3.6897194328210166,-12.562578383967349,-15.729753378220423,25.35848033681858,8.73647740583177
0.19809904952476237,0.007046572813292465,0.0006524612692015616,-0.003913743762641146,0.1545160251600875,0.015564747524118636,-0.08581989368757009,2.465655274977475,0.2877450954750039,-1.3694519604004363,22.601468776872046,3.715084924426363,-12.55310344415436,-18.35544983011775,25.321555454351817,10.19481798975604
0.19909954977488742,0.0072024825835895635,0.0006681863798796231,-0.004000337757651617,0.15699546874998427,0.015854646147213727,-0.08719700382918041,2.488269732763527,0.29147657901158674,-1.3820122780826352,22.58177918822784,3.7404128051519208,-12.542167630846677,-20.984961811777268,25.283334721391107,11.655277760724381
0.2001000500250125,0.00736088560587789,0.0006842035530808407,-0.0040883165321411235,0.15949753913052744,0.016148292671927182,-0.08858668113827872,2.5108631632586107,0.29523339641776963,-1.3945609169769935,22.559455657711748,3.7657017806194673,-12.529768897358426,-23.618021087458843,25.243823670715436,13.117707737666436
0.20110055027513754,0.007521804518622383,0.000700516553144236,-0.004177692659761178,0.1620222139331872,0.01644571243778076,-0.0899889131911384,2.5334329281517163,0.29901550810382316,-1.4070964117366662,22.53449476821448,3.790950561987536,-12.515905345789701,-26.25436065975991,25.203027831981565,14.58195962729917
0.20210105052526262,0.007685261936574683,0.0007171291697536661,-0.00426847870099268,0.16456946814681409,0.016746930744022094,-0.091403686096293,2.555976385844861,0.3028228731926557,-1.4196172951891857,22.50689336927172,3.8161578659482864,-12.50057522633806,-28.893714769616125,25.16095273172405,16.047885824126013
0.2031015507753877,0.007851280448126295,0.0007340452178968674,-0.004360687201675803,0.16713927411448262,0.017051972848338773,-0.092830984492783,2.57849089171939,0.3066554495253517,-1.4321220984843681,22.476648575824342,3.8413224147243845,-12.483776936610083,-31.535818896302416,25.11760389335526,17.51533941043715
0.20410205102551274,0.008019882612658678,0.0007512685378232113,-0.004454330691538245,0.16973160153060002,0.017360863965578024,-0.09427079154855,2.6009737984010117,0.31051319366670566,-1.4446093512415197,22.443757766979093,3.866442936065877,-12.46550902093291,-34.180409757431846,25.072986837165367,18.984174156309628
0.2051025512756378,0.008191090957890598,0.0007688029950001828,-0.004549421682721882,0.17234641743828027,0.01767362926647194,-0.09572308895897842,2.623422456023623,0.31439606091075406,-1.457077581695967,22.408218584768726,3.8915181632470563,-12.445770169665696,-36.82722530895559,25.027107080322324,20.454244519607208
0.20610305152576286,0.008364927977222983,0.000786652480068586,-0.004645972668308084,0.1749836862269807,0.017990293876368153,-0.09718785694558262,2.6458342124918657,0.31830400528630304,-1.469525316844884,22.37002893291264,3.91654683506335,-12.42455921851121,-39.476004745163564,24.97997013687189,21.925405645980113
0.20710355177588793,0.008541416127081517,0.0008048209087964812,-0.004743996120841783,0.17764336963040248,0.018310882873966167,-0.09866507425484078,2.6682064137424617,0.32223697956245406,-1.4819510825924425,22.32918697557718,3.941527695828187,-12.401875147827356,-42.12648849868438,24.93158151773762,23.397513368865987
0.20810405202601298,0.008720577824257312,0.0008233122220318598,-0.004843504490854416,0.18032542672464985,0.018635421290059132,-0.10015471815717279,2.6905364040042965,0.32619493525412496,-1.494353403894262,22.285691136136155,3.966459495369873,-12.377717081938645,-44.77841824048498,24.88194673072089,24.870424209488682
0.20910455227613806,0.008902435443245796,0.0008421303856540605,-0.004944510205385945,0.183029813926651,0.018963934106281142,-0.10165676444606292,2.7128215260572723,0.33017782262756984,-1.5067308049011767,22.239540095931137,3.9913409890284646,-12.352084288447742,-47.43153687987014,24.831071280500844,26.34399537685882
0.2101050525262631,0.009087011313584241,0.0008612793905239403,-0.005047025666506078,0.18575648499283617,0.01929644625386012,-0.1031711874373258,2.7350591214899094,0.33418559070589443,-1.519081809102319,22.190732793031984,4.016170937652642,-12.324976177546992,-50.0855885644835,24.77896066863446,27.818084767773833
0.21110555277638818,0.009274327717188008,0.0008807632524327926,-0.005151063249834784,0.18850539101807406,0.01963298261237616,-0.10469795996851551,2.7572465309556984,0.33821818727456754,-1.5314049394674958,22.13926842099726,4.040948107596597,-12.29639230132999,-52.74031868030784,24.725620393556472,29.292550966818148
0.21210605302651325,0.009464406885685927,0.0009005860120500309,-0.005256635303062353,0.19127648043486326,0.019973568008525445,-0.10623705339847664,2.7793810944282527,0.34227555888693284,-1.5436987185889004,22.085146427634577,4.065671270716888,-12.266332353103058,-55.39547385166337,24.671055950579458,30.767253246362642
0.2131065532766383,0.009657270997754938,0.0009207517348696335,-0.005363754144469008,0.1940696990127787,0.020318227214889583,-0.10778843760703688,2.8014601514551667,0.34635765086971293,-1.5559616688221105,22.028366513761053,4.090339204369327,-12.234796166696725,-58.05080194120954,24.615272831893773,32.24205156656502
0.21410705352676337,0.009852942176454339,0.0009412645111553631,-0.005472432061444328,0.19688498985817224,0.02066698494871057,-0.10935208099484044,2.8234810414106675,0.3504644073285135,-1.5681923124264148,21.968928631963845,4.114950691405854,-12.201783715777378,-60.706052049943466,24.558276526567536,33.71680657536998
0.21510755377688842,0.010051442486559866,0.0009621284558847585,-0.005582681309006555,0.19972229341412473,0.02101986587067118,-0.1109279504833219,2.8454411037470155,0.3545957711533237,-1.5803891717044432,21.906832985360317,4.1395045201714,-12.167295113158634,-63.36097451720089,24.500072520546773,35.19137960850808
0.2161080540270135,0.010252793931897814,0.0009833477086919138,-0.005694514108321954,0.2025815474606495,0.02137689458368087,-0.11251601151481867,2.867337678244665,0.35875168402401214,-1.5925507691411065,21.842080026358868,4.1639994845007875,-12.131330610113064,-66.015320920657,24.440666296655184,36.66563268949837
0.21710855427713854,0.010457018452679514,0.0010049264338090383,-0.005807942645224339,0.20546268711514556,0.021738095631667224,-0.1141162280528232,2.88916810526119,0.36293208641582186,-1.6046756275418546,21.774670455418793,4.188434383715567,-12.093890595683437,-68.66884407632423,24.380063334594347,38.13942852964436
0.21810905452726362,0.010664137922836422,0.0010268688200068179,-0.005922979068734949,0.20836564483309936,0.02210349349837287,-0.1157285625823725,2.910929725978954,0.36713691760486006,-1.6167622701702344,21.70460521981122,4.212808022620932,-12.054975595994534,-71.32129803855412,24.31826911094362,39.61263052803842
0.21910955477738867,0.010874174147355937,0.0010491790805335643,-0.006039635489582741,0.2112903504090343,0.022473112606157874,-0.11735297611057534,2.9326198826515473,0.3713661156735861,-1.6288092208847658,21.631885512379313,4.2371192115025655,-12.0145862735645,-73.97243810003624,24.255289099160144,41.085102771558425
0.22011005502751374,0.011087148859618394,0.001071861453053177,-0.006157923978725329,0.21423673097770476,0.02284697731480762,-0.1189894281672759,2.954235918848998,0.37561961751629563,-1.640815004275129,21.55651277029863,4.261366766123524,-11.972723426616412,-76.62202079179897,24.191128769578885,42.5567100348691
0.22111055527763882,0.0113030837187353,0.0010949201995819123,-0.006277856565870602,0.21720471101553718,0.023225111920346264,-0.12063787680585383,2.975775179701713,0.3798973588446022,-1.6527781457976596,21.47848867383772,4.2855495077211145,-11.929387988389818,-79.26980388320925,24.12579358941259,44.02731778042272
0.22211105552776386,0.011522000306889213,0.0011183596064239646,-0.006399445237999266,0.220194212342313,0.023607540653855553,-0.12229827860415883,2.9972350121432068,0.3841992741929153,-1.6646971719101538,21.39781514511837,4.309666263003767,-11.88458102645222,-81.9155463819722,24.0592890227518,45.49679215845747
0.22311155577788894,0.011743920126675344,0.0011421839841058731,-0.006522701937888346,0.22320515412309466,0.02399428768029923,-0.12397058866558085,3.018612765151569,0.3885252969239155,-1.6765706102059925,21.314494346876092,4.333715864147905,-11.838303742010652,-84.55900853413068,23.991620530564894,46.96500000699827
0.22411205602801398,0.011968864598445247,0.0011663976673097463,-0.0066476385626358355,0.22623745287039285,0.024385377097352817,-0.12565476062025321,3.0399057899896884,0.39287535923402594,-1.6883969895475621,21.22852868122071,4.35769714879483,-11.790557469223206,-87.19995182406828,23.922793570697994,48.43180885185767
0.22511255627813906,0.01219685505765281,0.001191005014805329,-0.006774266962186643,0.22929102244657243,0.02478083293423898,-0.12735074662638976,3.06111144044428,0.3972493921588815,-1.7001748401989951,21.139920788396413,4.381608960047583,-11.74134367451045,-89.83813897450389,23.852813597875063,49.89708690663353
0.2261130565282641,0.01242791275220278,0.0012160104093808962,-0.006902598937859903,0.23236577406649914,0.025180679150568257,-0.12905849737175348,3.0822270730635952,0.4016473255787944,-1.711902693958229,21.048673545542584,4.405450146467834,-11.690663955867125,-92.47333394649766,23.781686063697858,51.36070307271241
0.22711355677838918,0.012662058839801971,0.0012414182577729946,-0.007032646240877857,0.23546161630042106,0.025584939635185388,-0.13077796207525863,3.1032500473939653,0.4060690882242167,-1.7235790842883567,20.95479006545391,4.4292195620727455,-11.638520042173518,-95.10530193944618,23.709416416645936,52.8225269392655
0.22811405702851423,0.012899314385313625,0.001267232990595032,-0.0071644205708963835,0.2385784550770893,0.02599363820502099,-0.13250908848870238,3.1241777262150556,0.41051460768119974,-1.7352025464483016,20.858273695341044,4.452916066331854,-11.584913792507079,-97.7338093910864,23.636010102076607,54.28242878325257
0.2291145572786393,0.013139700358114865,0.001293459062264717,-0.007297933574537342,0.24171619368710945,0.026406798603948713,-0.13425182289862733,3.1450074757739026,0.4149838103968502,-1.7467716176228107,20.759128015590704,4.4765385241639315,-11.529847195453879,-100.35862397749227,23.561472562225063,55.74027956941856
0.23011505752876438,0.013383237629457694,0.0013201009509303595,-0.007433196843922822,0.2448747327865311,0.026824444501647948,-0.1360061101283148,3.165736666017706,0.4194766216847834,-1.7582848370517303,20.657356838526557,4.500085805933885,-11.473322368420199,-102.97951461307562,23.48580923620424,57.19595095029621
0.23111555777888942,0.013629946969833733,0.0013471631583960352,-0.00757022191521149,0.24805397040066682,0.027246599492471896,-0.1377718935399058,3.186362670825361,0.4239929657305732,-1.7697407461586234,20.55296420716926,4.523556787449602,-11.415341556944064,-105.59625145058854,23.40902556000487,58.649315266204866
0.2321160580290145,0.013879849046342823,0.0013746502100456216,-0.007709020267137081,0.2512538019281429,0.027673287094321118,-0.139549115036651,3.2068828682377877,0.428532765597199,-1.7811378886786824,20.445954393996967,4.54695034995885,-11.355907134006666,-108.20860588112112,23.331126966495514,60.10024554525076
0.23311655827913955,0.014132964420065857,0.0014025666547657055,-0.00784960331954925,0.25447412014518117,0.028104530747522574,-0.14133771506528903,3.22729464068699,0.43309594323048983,-1.7924748107859552,20.336331899705804,4.570265380146136,-11.295021599343908,-110.81635053410048,23.252118885422536,61.54861550332555
0.23411705852926462,0.014389313543441955,0.0014309170648673722,-0.007991982431956816,0.25771481521010753,0.028540353813714045,-0.14313763261855048,3.247595375223862,0.4376824194645637,-1.8037500612198771,20.22410145197042,4.593500770129587,-11.232687578758174,-113.41925927729423,23.17200674341004,62.99429954410999
0.23511755877938967,0.01464891675765032,0.0014597060360068833,-0.00813616890207363,0.2609757746680902,0.028980779574734026,-0.14494880523778914,3.267782463744817,0.4422921140272671,-1.8149621914111305,20.109268004204075,4.616655417457823,-11.168907823429368,-116.01710721680743,23.090795963959994,64.43717275906928
0.23611805902951474,0.014911794289996961,0.0014889381871052438,-0.008282173964367106,0.2642568834561015,0.0294258312315171,-0.14677116901573867,3.2878533032170796,0.44692494554560724,-1.8261097556067882,19.991836734319328,4.639728225106832,-11.103685209226988,-118.60967069708263,23.00849196745215,65.87711092745644
0.2371185592796398,0.015177966251306378,0.0015186181602666658,-0.008430008788609578,0.26755802390810746,0.0298755319029947,-0.1486046585993944,3.3078052959028303,0.4515808315511847,-1.8371913109947968,19.87181304348843,4.662718101476846,-11.03702273602121,-121.19672730090298,22.925100171144035,67.31399051631168
0.23811905952976486,0.015447452633318743,0.0015487506206959348,-0.00857968447843261,0.27087907576047887,0.030329904625001288,-0.15044920719301844,3.32763584958205,0.4562596884856214,-1.8482054178277485,19.749202554903647,4.685623960389217,-10.968923526994658,-123.77805584938824,22.840625989171016,68.74768868046118
0.23911955977988994,0.015720273306092453,0.0015793402566146887,-0.00873121206988439,0.2742199161576259,0.030788972349186088,-0.15230474656127002,3.347342377774144,0.46096143170598497,-1.8591506395459771,19.624011112537744,4.708444721083279,-10.89939082795389,-126.35343640199724,22.75507483254622,70.17808326251811
0.240120060030015,0.015996448015412452,0.0016103917791766007,-0.008884602529990274,0.27758041965785324,0.031252757941930075,-0.15417120703245696,3.3669222999583197,0.4656859754902111,-1.870025542899957,19.49624477990442,4.731179308213248,-10.828428006640824,-128.92265025652787,22.668452109160587,71.60505279288249
0.24112056028014006,0.01627599638020465,0.001641909922381486,-0.009039866755316707,0.28096045823943677,0.0317212841832685,-0.15604851750191054,3.3863730417927385,0.4704332330425219,-1.8808286980720168,19.365909838818723,4.753826651845067,-10.756038552044378,-131.48547994911547,22.580763223782856,73.02847648974074
0.2421210605302651,0.01655893788995637,0.0016738994429883372,-0.009197015570538529,0.2843599013069162,0.03219457376581883,-0.15793660543548102,3.4056920353324087,0.475203116498842,-1.8915586787973664,19.233012788157374,4.776385687453304,-10.682226073711895,-134.04170925423463,22.492013578059606,74.44823425906657
0.24312156078039018,0.016845291902143265,0.0017063651204272789,-0.009356059727009864,0.28777861569760826,0.032672649293714044,-0.15983539687315487,3.424876719245833,0.47999553693221014,-1.9022140624844222,19.097560342619364,4.798855355918019,-10.606994301060807,-136.59112318469732,22.402208570515132,75.86420669461972
0.24412206103051523,0.017135077639662998,0.0017393117567104707,-0.009517009901338719,0.29121646568833454,0.03315553328154152,-0.1617448164327913,3.4439245390304425,0.4848104043581902,-1.9127934303344694,18.959559431486213,4.821234603521631,-10.53034708269003,-139.13350799165593,22.31135359655159,77.27627507794773
0.2451225612806403,0.01742831418827546,0.0017727441763419343,-0.0096798766939653,0.2946733130023639,0.03364324815328701,-0.1636647873139786,3.4628329472267696,0.48964762774027515,-1.9232953674605935,18.819017197382575,4.843522381945807,-10.452288385691492,-141.66865116459908,22.219454048448917,78.68432137838396
0.24612306153076535,0.01772502049405039,0.0018066672262263416,-0.009844670627744362,0.2981490168165696,0.03413581624128435,-0.16559523130200873,3.481599403631386,0.49450711499529193,-1.9337184630059778,18.67594099503642,4.865717648268318,-10.372822294961749,-144.196341431355,22.126515315364877,80.08822825304851
0.24712356178089043,0.01802521536082196,0.001841085775576743,-0.010011402146531486,0.30164343376879876,0.03463325978517049,-0.16753606877197116,3.5002213755085814,0.4993887729988002,-1.9440613102614517,18.530338390039624,4.887819364959937,-10.291953012513497,-146.71636875809105,22.032542783334968,81.48787904684923
0.2481240620310155,0.018328917447651104,0.0018760047158212602,-0.010180081613773586,0.305156417965453,0.035135600930845716,-0.1694872186929625,3.51869633780084,0.5042925075904903,-1.9543225067824024,18.3822171576084,4.909826499881292,-10.209684856786922,-149.2285243493111,21.937541835272544,82.88315779247951
0.24912456228114055,0.018636145266295336,0.0019114289605087367,-0.010350719311103658,0.30868782098927927,0.03564286172943958,-0.17144859863241363,3.5370217733380467,0.509218223579576,-1.9645006545049588,18.231585281343605,4.931738026279754,-10.126022261961497,-151.73260064785885,21.84151785096879,84.27394921042003
0.2501250625312656,0.018946917178686646,0.001947363445213357,-0.010523325436939944,0.312237491907369,0.03615506413628213,-0.1734201247605334,3.5551951730454547,0.5141658247501859,-1.9745943598615123,18.07845095199127,4.95355292278631,-10.040969777267325,-154.22839133491667,21.744476207092564,85.6601387089384
0.2511255627813907,0.01926125139441728,0.0019838131274382367,-0.01069791010508954,0.31580527727936486,0.036672230009880326,-0.17540171185486586,3.573214036150421,0.5191352138667492,-1.984602233895528,17.922822566203095,4.975270173412434,-9.95453206629675,-156.71569133000565,21.646422277190638,87.0416123840894
0.25212606303151575,0.019579165968234093,0.002020782986517993,-0.01087448334335671,0.31939102116587537,0.037194381110900135,-0.1773932733049637,3.5910758703879018,0.5241262926793828,-1.9945228923756924,17.7647087252964,4.996888767546953,-9.86671390631571,-159.19429679098195,21.547361431687598,88.41825701971253
0.2531265632816408,0.019900678797541305,0.002058278023520307,-0.011053055092155895,0.3229945651370924,0.037721539101153945,-0.17939472111717564,3.608778192204697,0.5291389619292699,-2.00435495590934,17.60411823401529,5.01840769995295,-9.777520187575512,-161.6640051140451,21.44729903788568,89.78996008743637
0.25412706353176584,0.020225807619911856,0.0020963032611464455,-0.01123363520312948,0.326615748281613,0.0382537255425931,-0.18140596591954494,3.6263185269624616,0.5341731213540392,-2.0140970500552138,17.441060099290503,5.039825970764604,-9.686955912624263,-164.12461493373007,21.346240459965088,91.1566097466749
0.25512756378189094,0.02055457001060807,0.002134863743630827,-0.011416233437770767,0.3302544072154654,0.038790961896306306,-0.1834269169668231,3.6436944091394716,0.5392286696931393,-2.0237478054355296,17.27554352900009,5.061142585484093,-9.5950261956183,-166.57592612291165,21.24419105898376,92.51809484463018
0.256128064032016,0.020886983380110937,0.002173964536639529,-0.011600859466051695,0.333910376091334,0.03933326952152294,-0.18545748214559374,3.6609033825311665,0.5443055046932118,-2.033305857847357,17.107577930729647,5.082356554978446,-9.501736261633763,-169.0177397928015,21.141156192877386,93.87430491628912
0.25712856428214104,0.021223064971659194,0.0022136107271678554,-0.011787522865056028,0.3375834866079877,0.039880669674622,-0.18749756797950856,3.6779430004494094,0.5494035231134581,-2.0427698483732932,16.937172910533043,5.103466895476436,-9.407091445978224,-171.4498582929514,21.03714121645952,95.22513018442667
0.25812906453226614,0.021562831858797742,0.0022538074234368776,-0.011976233117617705,0.3412735680199024,0.04043318350814643,-0.1895470796346323,3.6948108259205643,0.5545226207310068,-2.0521384234914755,16.764338271692406,5.124472628565445,-9.311097193502057,-173.87208521125052,20.93215148142152,96.5704615596043
0.2591295647823912,0.021906300942935643,0.002294559754788996,-0.012166999610964551,0.344980447147086,0.04099083206982259,-0.19160592092489956,3.711504431882272,0.5596626923462736,-2.0614102351848693,16.58908401347913,5.145372781188342,-9.213759057910133,-176.28422537392686,20.826192336332493,97.91019064017021
0.26013006503251623,0.022253488950914464,0.0023358728715825506,-0.012359831635367661,0.34870394838509605,0.04155363630158541,-0.19367399431767882,3.7280214013790443,0.5648236317883244,-2.070583941049911,16.41142032991356,5.166166385640353,-9.115082701073105,-178.6860848455474,20.719269126639347,99.24420971225916
0.2611305652826413,0.022604412432586252,0.0023777519450854144,-0.012554738382796238,0.3524438937152556,0.04212161703860865,-0.19575120093944565,3.744359327756562,0.5700053319202267,-2.0796582044044163,16.23135760852623,5.186852479565943,-9.01507389233922,-181.07747092901667,20.611387194666868,100.57241174979308
0.2621310655327664,0.02295908775840225,0.002420202167367661,-0.012751728945578305,0.35620010271506053,0.042694795008340655,-0.19783744058156408,3.760515814854774,0.5752076846444073,-2.0886316943948344,16.04890642911748,5.207430105955679,-8.913738507845565,-183.45819216557746,20.502551879617574,101.89469041447973
0.26313156578289143,0.023317531117011913,0.0024632287511932465,-0.012950812315067176,0.35997239256878016,0.04327319082954544,-0.19993261170617407,3.776488477199734,0.5804305809079993,-2.097503086102794,15.86407756251856,5.227898313143122,-8.811082529829799,-185.8280583348119,20.392768517571742,103.21094005581477
0.2641320660330165,0.023679758512872552,0.002506836929910724,-0.013151997380313824,0.36376057807825024,0.04385682501134902,-0.20203661145218546,3.7922749401941998,0.5856739107081887,-2.1062710606509647,15.676881969351605,5.248256154801688,-8.707112045941663,-188.18688045464077,20.282042441487576,104.52105571108018
0.2651325662831415,0.024045785763870203,0.0025510319573430465,-0.013355292926745513,0.367564471673855,0.044445717952291394,-0.20414933564137827,3.8078728403069975,0.5909375630975601,-2.114934305308226,15.487330798790387,5.26850268994153,-8.60183324855436,-190.5344707813231,20.170378981200948,105.8249331053444
0.2661330665332666,0.024415628498951195,0.0025958191076763727,-0.013560707634850297,0.3713838834256983,0.04503988993938339,-0.2062706787846066,3.823279825261145,0.5962214261894352,-2.12349151359417,15.295435387320278,5.288636982906401,-8.495252434076166,-192.87064280945424,20.057783463425615,107.1224686514627
0.2671335667833917,0.024789302155765275,0.002641203675347975,-0.013768250078868026,0.375218621054964,0.045639361147169384,-0.20840053408810885,3.83849355422072,0.6015253871632121,-2.1319413853828695,15.101207257499102,5.308658103370544,-8.387376002261963,-195.19521127197095,19.94426121175309,108.41355945007723
0.2681340670335167,0.025166821978320084,0.0026871909749331853,-0.013977928725487605,0.37906848994546005,0.04624415163679506,-0.21053879345991944,3.8535116979765025,0.6068493322696981,-2.1402826270059996,14.904658116717542,5.328565126335563,-8.278210455524757,-197.5079921401478,19.829817546652734,109.69810328961731
0.2691345672836418,0.025548203014647244,0.002733786341031416,-0.014189751932550714,0.38293329315535024,0.046854281355080324,-0.21268534751638402,3.868331939130375,0.6121931468364397,-2.148513951355253,14.705799855959308,5.348357132127283,-8.167762398247277,-199.80880262359716,19.714457785471616,110.97599864629808
0.27013506753376687,0.025933460114480462,0.0027809951281512657,-0.014403727947762164,0.38681283142906764,0.047469770133598176,-0.21484008558877704,3.8829519722784944,0.6175567152730547,-2.1566340779840614,14.50464454856158,5.368033206392647,-8.056038536093334,-202.09746117026924,19.598187242434733,112.24714468412216
0.2711355677838919,0.02632260792694533,0.0028288227105946907,-0.014619864907406868,0.39070690320941276,0.04809063768775817,-0.21700289573002135,3.897369504193173,0.6229399210765525,-2.164641733208643,14.30120444897564,5.387592440096571,-7.943045675319423,-204.37378746645345,19.481011228644746,113.5114412548782
0.27213606803401696,0.026715660898261717,0.0028772744823402736,-0.014838170835073647,0.3946153046498337,0.04871690361589577,-0.21917366472150782,3.911582254003564,0.6283426468366583,-2.172535650208335,14.095491991527362,5.407033929518837,-7.828790722086389,-206.637602436779,19.36293505208222,114.76878889814299
0.27313656828414207,0.027112633269458213,0.00292635585692558,-0.015058653640385848,0.39853782962688317,0.04934858739836685,-0.2213522780800154,3.9255879533751337,0.6337647742411322,-2.1803145691252763,13.887519789177095,5.426356776250954,-7.7132806817706605,-208.8887282442115,19.24396401760546,116.01908884127849
0.2741370685342671,0.027513539074099307,0.0029760722673285956,-0.015281321117738977,0.4024742697528575,0.049985708396647205,-0.2235386200647293,3.9393843466877962,0.6392061840810824,-2.1879772371633517,13.67730063228062,5.445560087193031,-7.596522658275987,-211.12698829005507,19.124103426950597,117.26224299943402
0.27513756878439216,0.027918392136025302,0.003026429165848307,-0.015506180945045423,0.4064244143886129,0.05062828585243802,-0.2257325736843609,3.952969191212911,0.6446667562562798,-2.195522408686497,13.464847487349509,5.464642974550666,-7.478523853344992,-213.35220721395376,19.003358578731554,118.49815397554622
0.27613806903451726,0.028327206067104996,0.0030774320239843273,-0.0157332406824863,0.41038805065655704,0.051276338886776004,-0.2279340207043624,3.9663402572889623,0.6501463697804652,-2.202948845316275,13.250173495811342,5.483604555831811,-7.359291565870569,-215.56421089388897,18.88173476844005,119.72672506033757
0.2771385692846423,0.02873999426500174,0.0031290863323156994,-0.01596250777127065,0.41436496345381746,0.051929886499149404,-0.2301428416542414,3.9794953284960677,0.6556449027866587,-2.2102553160287877,13.033291972770144,5.502443953843643,-7.238833191207405,-217.76282644618112,18.75923728844563,120.94786023231765
0.27813906953476736,0.029156769910952403,0.003181397600378757,-0.016193989532401882,0.41835493546558256,0.052588947566618714,-0.23235891583497004,3.992432201829154,0.6611622325324571,-2.217440597250882,12.814216405766995,5.521160296689442,-7.117156220483691,-219.94788222548857,18.635871427995593,122.1614641577828
0.2791395697848924,0.029577545967560143,0.0032343713565441607,-0.016427693165451836,0.422357747178617,0.053253540842943405,-0.23458212132649134,4.005148687870013,0.6666982354053407,-2.224503472955681,12.592960453540364,5.539752717765477,-6.99426823991236,-222.11920782480877,18.511642473215066,123.36744219081638
0.2801400700350175,0.03000233517660053,0.0032880131478930296,-0.01666362574734231,0.4263731768949464,0.0539236849577133,-0.2368123349953213,4.01764261095798,0.6722527869279642,-2.2314427347574277,12.36953794478637,5.558220355757865,-6.870176930102829,-224.2766340754763,18.38655570710698,124.56570037328837
0.28114057028514255,0.030431150056841445,0.003342328540092203,-0.01690179423113418,0.4304010007457145,0.05459939841548563,-0.23904943250224378,4.029911809359506,0.6778257617634522,-2.2382571820055976,12.143962876919588,5.576562354639451,-6.744890065372523,-226.4199930471667,18.260616409552025,125.75614543485517
0.2821410705352676,0.030864002901877272,0.003397323117268675,-0.01714220544482448,0.434440992705209,0.05528069959492744,-0.24129328831010086,4.041954135436378,0.6834170337206921,-2.244945621878405,11.91624941483284,5.594777863666687,-6.618415513058219,-228.54911804789162,18.133829857308744,126.93868479296034
0.28314157078539265,0.031300905777976756,0.0034530024818831316,-0.01738486609015111,0.4384929246050527,0.05596760674796277,-0.2435437756916757,4.053767455812765,0.6890264757596174,-2.2515068694755263,11.686411889658451,5.612866037376491,-6.490761232827774,-230.66384362400152,18.006201324013468,128.11322655283325
0.28414207103551775,0.031741870521945464,0.0035093722546026686,-0.017629782741405583,0.4425565661485662,0.056660137998925955,-0.24580076673766865,4.0653496515409975,0.6946539599964942,-2.2579397479102115,11.454464797527965,5.630826035583152,-6.361935275991572,-232.7640055601866,17.87773608018029,129.2796795074921
0.2851425712856428,0.03218690873900264,0.0035664380741726523,-0.01787696184425387,0.44663168492528993,0.057358311343719395,-0.24806413236476343,4.076698618266109,0.7002993577092028,-2.2642430884006495,11.220422798332823,5.64865702337517,-6.231945784813899,-234.84944087947298,17.74843939320115,130.43795313773862
0.28614307153576785,0.03263603180067251,0.003624205597287726,-0.01812640971456512,0.45071804642567587,0.058062144648977146,-0.2503337423237872,4.087812266389168,0.7059625393425136,-2.2704157303606913,10.98430071448491,5.666358171112157,-6.100800991824826,-236.91998784322868,17.61831652734576,131.58795761216476
0.28714357178589295,0.03308925084269063,0.003682680498462017,-0.018378132537248924,0.45481541405593734,0.05877165565123361,-0.25260946520795813,4.098688521229283,0.711643374513364,-2.276456521489835,10.746113529676744,5.683928654421701,-5.968509219131329,-238.97548595115825,17.487372743761615,132.72960378714723
0.288144072036018,0.033546576762925065,0.0037418684698984715,-0.018632136365100613,0.45892354915306394,0.05948686195609738,-0.2548911684612247,4.109325323184474,0.7173417320161275,-2.2823643178625734,10.50587638764205,5.701367654196232,-5.835078877729156,-241.01577594130356,17.355613300474065,133.86280320684972
0.28914457228614304,0.03400802021931262,0.0038017752213574,-0.01888842711765508,0.4630422109999963,0.06020778103743071,-0.25717871838669415,4.11972062789124,0.7230574798278854,-2.2881379840170086,10.263604590916255,5.718674356589918,-5.700518466814092,-243.04069979004845,17.22304345238621,134.98746810322294
0.2901450725362681,0.034473591627810427,0.003862406480024197,-0.0191470105800491,0.4671711568409568,0.06093443023653391,-0.25947198015514716,4.129872406382903,0.7287904851136904,-2.293776393042815,10.019313599596611,5.735847953015519,-5.564836573093595,-245.0501007121103,17.089668451278957,136.10351139600388
0.2911455727863932,0.03494330116036293,0.003923767990376212,-0.019407892401892026,0.47131014189694154,0.061666826761335,-0.261770817813643,4.139778645246681,0.7345406142318287,-2.299278426668466,9.773019030102834,5.752887640141271,-5.428041870098351,-247.04382316054904,16.955493545811045,137.21084669271698
0.29214607303651824,0.03541715874288436,0.003985865514048876,-0.019671078096145475,0.4754589193813706,0.062404987685585174,-0.2640750942942098,4.149437346779568,0.7403077327390802,-2.3046429753478286,9.52473665393774,5.7697926198877765,-5.290143117493809,-249.021712826763,16.820523981518946,138.30938828867335
0.2931465732866433,0.03589517405325721,0.004048704829700958,-0.01993657303801138,0.4796172405158854,0.06314892994805857,-0.2663846714226218,4.158846529142981,0.7460917053959736,-2.309868938346025,9.274482396446924,5.786562099424827,-5.151149160391482,-250.98361664048502,16.684765000817038,139.3990511669697
0.2941470735367684,0.0363773565193463,0.004112291732879078,-0.02020438246382921,0.4837848545463115,0.06389867035175839,-0.2686994099272618,4.168004226516059,0.7518923961720401,-2.314955223824614,9.022272335580247,5.803195291168348,-5.011068928660881,-252.9293827697902,16.54822184299738,140.47975099849103
0.29514757378689344,0.0368637153170292,0.004176632035881404,-0.02047451146998193,0.4879615087587653,0.06465422556312739,-0.27101916944807003,4.1769084892478885,0.7577096682510625,-2.319900748926103,8.768122700651332,5.819691412777226,-4.869911436240704,-254.85886062109228,16.4108997442299,141.55140414190893
0.2961480740370185,0.037354259368242396,0.004241731567620535,-0.02074696501181081,0.49214694849591656,0.06541561211126405,-0.2733438085455741,4.18555738400833,0.763543384036322,-2.3247044398577525,8.512049871098434,5.836049687150192,-4.7276857804504075,-256.7719008391389,16.272803937562312,142.61392764367997
0.29714857428714353,0.037848997339044406,0.004307596173485663,-0.021021747902539724,0.49634091717340184,0.06618284638714403,-0.2756731847100067,4.193948993937703,0.7693934051558428,-2.3293652319746907,8.254070375244805,5.852269342422708,-4.5844011413018535,-258.6683553070221,16.133939652920112,143.66723923804972
0.29814907453726863,0.038347937637694854,0.004374231715203899,-0.02129886481220826,0.5005431562963825,0.06695594464284657,-0.278007154370502,4.202081418795202,0.7752595924676303,-2.3338820698623435,7.9942008890589875,5.86834961196382,-4.440066780810751,-260.54807714616794,15.994312117106672,144.7112573470491
0.2991495747873937,0.03885108841275066,0.004441644070700874,-0.021578320266614173,0.5047534054762577,0.06773492299078651,-0.28034557290437717,4.209952775106057,0.7811418060649106,-2.338253907418191,7.73245823491553,5.884289734373073,-4.294692042308233,-262.41092071634336,15.853926553803037,145.7459010804963
0.3001500750375187,0.03935845755117866,0.00450983913396054,-0.021860118646265293,0.5089714024475194,0.06851979740295126,-0.28268829464649536,4.217561196307477,0.7870399052813638,-2.3424797079327924,7.468859380354946,5.900088953477334,-4.148286349752302,-264.2567416156536,15.712788183568135,146.7710902359961
0.3011505752876438,0.039870052676485225,0.004578822814884212,-0.02214426418534062,0.5131968830847519,0.06931058371014312,-0.2850351728987055,4.224904832893323,0.792953748696354,-2.3465584441701783,7.203421436844714,5.915746518327701,-4.000859207039484,-266.0853966805408,15.570902223838676,147.7867452989399
0.3021510755377689,0.0403858811468634,0.004648601039148898,-0.022430760970661195,0.5174295814197785,0.07010729760122679,-0.28738605993936805,4.231981852557581,0.7988831941401597,-2.3504890984475093,6.936161658539007,5.931261683196372,-3.8524201973161,-267.89674398578626,15.428273888929173,148.79278744250672
0.3031515757878939,0.04090595005335647,0.004719179748064799,-0.022719612940670167,0.521669229658952,0.0709099546223823,-0.2897408070329567,4.23879044033655,0.8048280986991946,-2.3542706627140557,6.667097441039964,5.946633707573512,-3.7029789822901673,-269.6906428445102,15.28490839003193,149.78913852766112
0.30415207603801897,0.041430266218039837,0.0047905648984321566,-0.023010823884422976,0.5259155582005817,0.07171857017636282,-0.29209926443973766,4.245328798749842,0.8107883187212341,-2.3579021386295045,6.396246320157093,5.9618618561641314,-3.5525453015425335,-271.46695380817164,15.14081093521708,150.77572110315486
0.3051525762881441,0.04195883619221963,0.004862762462397272,-0.02330439744058684,0.5301682956525066,0.072533159521758,-0.29446128142553063,4.251595147940071,0.8167637098206297,-2.3613825376415667,6.123625970668744,5.976945398884967,-3.4011289718387427,-273.22553866656756,14.995986729432481,151.7524584055262
0.3061530765382691,0.04249166625464941,0.004935778427307866,-0.023600337096450298,0.5344271688498055,0.07335373777226249,-0.2968267062715451,4.257587725811362,0.8227541268835269,-2.3647108810628765,5.849254205081703,5.991883610861344,-3.2487398864403154,-274.96626044783164,14.850440974503895,152.71927435910126
0.30715357678839417,0.04302876240976463,0.005009618795567656,-0.02389864618694258,0.5386919028726438,0.07418031989594945,-0.29919538628429143,4.263304788166592,0.8287594240730759,-2.367886200147243,5.57314897239214,6.006675772424071,-3.095388014416315,-276.6889834184398,14.704178869134779,153.67609357599224
0.3081540770385192,0.0435701303859347,0.00508428958449022,-0.024199327893662876,0.5429622210642588,0.07501292071454951,-0.30156716780557247,4.268744608843401,0.8347794548346417,-2.3709075361651735,5.295328356845694,6.021321169106279,-2.9410833999550796,-278.3935730832026,14.557205608906465,154.62284135609661
0.3091545772886443,0.04411577563373374,0.005159796826152176,-0.024502385243919764,0.5472378450490802,0.07585155490273501,-0.30394189622254575,4.273905479848956,0.8408140719010098,-2.373773940478726,5.0158105766979695,6.0358190916403345,-2.785836161675384,-280.07989618527205,14.40952638627805,155.55944368710095
0.31015507753876936,0.04466570332422886,0.005236146567245592,-0.024807821109780574,0.5515184947509848,0.07669623698740892,-0.30631941597786316,4.278785711493459,0.8468631272975876,-2.376484474615676,4.734613982975372,6.050168835954696,-2.6296564919383663,-281.7478207061359,14.261146390586461,156.48582724447766
0.3111555777888944,0.04521991834728732,0.005313344868929734,-0.02511563820713119,0.5558038884116847,0.07754698134699994,-0.30869957057988323,4.283383632522456,0.8529264723476082,-2.3790382103429817,4.45175705823479,6.0643697031707875,-2.472554656158689,-283.3972158656236,14.112070808046376,157.4019193914857
0.3121560780390195,0.04577842530990181,0.005391397806682084,-0.025425839094745824,0.5600937426092458,0.07840380221076179,-0.3110822026129584,4.28769759024786,0.8590039576773224,-2.3814342297395656,4.167258415324611,6.07842099959988,-2.31454099211631,-285.0279521218994,13.962304821750298,158.30764817916997
0.31315657828914456,0.04634122853453446,0.005470311470148667,-0.025738426173367305,0.5643877722767378,0.07926671365807805,-0.3134671537477914,4.29172595067775,0.8650954332211942,-2.3836716252684136,3.881136796144915,6.092322036739964,-2.1556259092679326,-286.6399011714693,13.811853611668534,159.20294234636464
0.3141570785392696,0.04690833205747966,0.005550091962993693,-0.0260534016847978,0.568685690721015,0.08013572961777274,-0.3158542647518677,4.295467098644959,0.8712007482270921,-2.3857494998479765,3.5934110704078,6.106072131272612,-1.9958198880584277,-288.2329359491762,13.660722354649206,160.08773131968735
0.31515757878939465,0.047479739627245596,0.005630745402748486,-0.02637076771099981,0.5729872096416211,0.08101086386742526,-0.3182433754999538,4.298919437934343,0.8773197512614738,-2.3876669669228705,3.3041002343981702,6.119670605059879,-1.8351334792326668,-289.8069306282006,13.508916224418197,160.9619452135454
0.31615807903951976,0.048055454702955,0.005712277920659773,-0.026690526173207985,0.577292039149827,0.08189213003269095,-0.3206343249846729,4.302081391408922,0.8834522902145733,-2.3894231505339425,3.013223409733527,6.133116785141147,-1.6735773031465122,-291.3617606200622,13.356440391579195,161.82551483013123
0.3171585792896448,0.048635480452764626,0.005794695661537251,-0.027012678831051358,0.581599887787788,0.08277954158662698,-0.32302695132714376,4.304951401134667,0.889598212305579,-2.3910171853875477,2.7207998421252526,6.146410003730034,-1.511162049078969,-292.8973025746202,13.203300023613743,162.6783716594246
0.31815907953976985,0.04921981975230428,0.005878004783600497,-0.027337227281686225,0.5859104625478264,0.08367311184902287,-0.325421091787692,4.307527928504122,0.8957573640878131,-2.3924482169242487,2.426848900138154,6.159549598211223,-1.3478984745432534,-294.41343438007175,13.049500284881114,163.52044787919073
0.3191595797898949,0.04980847518313542,0.005962211458325244,-0.02766417295894011,0.5902234688918445,0.08457285398573697,-0.3278165827766295,4.3098094543587635,0.901929591453907,-2.3937154013867534,2.1313900739515788,6.172534911137399,-1.1837974045984367,-295.9100351629505,12.895046336618389,164.35167635498448
0.32016008004002,0.05040144903122844,0.006047321870288914,-0.027993517132465968,0.5945386107708472,0.08547878100803727,-0.3302132598651011,4.311794479110087,0.9081147396409711,-2.394817905887178,1.8344429741192414,6.185365290226045,-1.0188697311610646,-297.3869852881327,12.739943336940504,165.17199064014392
0.32116058029014505,0.050998743285460654,0.006133342217015606,-0.028325260906908116,0.5988555906445966,0.08639090577194818,-0.3326109577959965,4.313481522859538,0.9143126532357638,-2.3957549084736307,1.5360273303303487,6.198040088356393,-0.8531264123166764,-298.8441663588279,12.58419644084012,165.9813249757966
0.3221610805402701,0.051600359636133034,0.00622027870882033,-0.028659405221078224,0.6031741095013787,0.08730924097760193,-0.3350095104949339,4.314869125517068,0.9205231761798587,-2.396525598196116,1.236162990169042,6.210558663566245,-0.6865784716311225,-300.2814612165871,12.42781080018778,166.7796142908549
0.3231615807903952,0.05220629947350728,0.006308137568652642,-0.028995950847142883,0.6074938668778892,0.0882337991685952,-0.3374087510813014,4.315955846918612,0.9267461517748029,-2.397129175171721,0.934869917876064,6.222920379048892,-0.5192369974623539,-301.69875394130145,12.27079156373176,167.56679420202045
0.32416208104052024,0.052816563886363015,0.006396925031939648,-0.029334898389822204,0.6118145608792437,0.08916459273135145,-0.33980851187937117,4.316740266942155,0.9329814226872797,-2.3975648506491165,0.6321681931080789,6.235124603149936,-0.3511131422718172,-303.09592985119673,12.113143877098143,168.3428010137785
0.3251625812906453,0.05343115366057449,0.00648664734642834,-0.029676248285599345,0.6161358881990883,0.09010163389448743,-0.3422086244294711,4.317220985622729,0.9392288309542627,-2.397831847072418,0.3280780096987357,6.247170709364211,-0.1822181219360104,-304.4728755028383,11.95487288279083,169.10757171840334
0.32616308154077034,0.05405006927770807,0.0065773107720273295,-0.03002000080194158,0.6204575441398434,0.09104493472818596,-0.34460891949922606,4.31739662326601,0.9454882179881696,-2.3979293981442815,0.022619674418564273,6.259058076332637,-0.012563215057809884,-305.8294786911325,11.795983720191568,169.86104399595513
0.32716358179089544,0.054673310913639715,0.006668921580647936,-0.030366156036532376,0.6247792226330439,0.091994507143573,-0.34700922709485615,4.317265820560802,0.9517594245820113,-2.39785674888837,-0.2841863942637488,6.2707860878390935,0.1578402377215653,-307.16562844932105,11.636481525559763,170.6031562142811
0.3281640820410205,0.05530087843719292,0.006761486056044654,-0.03071471391651477,0.6291006162598015,0.09295036289210025,-0.34940937647254183,4.3168272386902,0.9580422909145376,-2.3976131557110927,-0.5923196674218545,6.282354132807304,0.32898083441137516,-308.481215048986,11.476371432032753,171.33384742901416
0.32916458229114554,0.05593277140879731,0.006855010493655034,-0.031065674197746616,0.6334214162713736,0.09391251356493296,-0.35180919614984857,4.316079559441535,0.9643366565553831,-2.3971978864626964,-0.9017595069110698,6.293761605297695,0.5008471123598284,-309.7761300000467,11.315658569625647,172.05305738357612
0.33016508254127064,0.0565689890791676,0.006949501200438901,-0.03141903646406666,0.6377413126098436,0.09488097059234255,-0.3542085139172112,4.315021485315086,0.9706423604702042,-2.3966102204976254,-1.2124851666074292,6.305007904504287,0.6734275489424633,-311.0502660507599,11.154348065231371,172.76072650917297
0.3311655827913957,0.05720953038800376,0.0070449644947170285,-0.031774800126572654,0.6420599939289093,0.09585574524310497,-0.3566071568494812,4.313651739631558,0.9769592410258184,-2.395849448734196,-1.5244757936476745,6.3160924347515675,0.846710562250454,-312.3035171877249,10.992445042620535,173.4567959247999
0.33216608304152073,0.057854393962711755,0.007141406706009169,-0.032132964422910755,0.6463771476147746,0.09683684862390358,-0.35900495131753074,4.311969066638295,0.9832871359953397,-2.3949148737136228,-1.837710429669194,6.32701460549136,1.0206845117794536,-313.53577863587714,10.82995462244166,174.1412074372377
0.3331665832916458,0.05850357811714493,0.007238834174871485,-0.03249352841657671,0.6506924598071521,0.09782429167873731,-0.36140172299991724,4.309972231614262,0.9896258825633043,-2.393805809658316,-2.1521680120488043,6.337773831299692,1.1953376991178786,-314.74694685848715,10.666881922221052,174.81390354105292
0.3341670835417709,0.059157080850367375,0.007337253252733443,-0.03285649099622876,0.6550056154203681,0.0988180851883343,-0.3637972968946028,4.307660020973828,0.9959753173308065,-2.392521582529513,-2.4678273751432513,6.3483695318736775,1.3706583686354392,-315.9369195571687,10.503232056362789,175.47482741859994
0.33516758379189593,0.05981489984543741,0.007436670301734056,-0.033221850875012136,0.6593162981645658,0.09981823976957022,-0.3661914973307366,4.305031242369187,1.0023352763206126,-2.39106153008418,-2.784667251527523,6.358801132028399,1.5466347081711582,-317.1055956718735,10.339010136148822,176.12392294002063
0.336168084042021,0.060477032468213315,0.007537091694557601,-0.0335896065898956,0.6636241905670238,0.1008247658748923,-0.3685841479804885,4.302084724791712,1.0087055949822943,-2.3894250019312917,-3.1026662732360393,6.369068061693763,1.7232548497228173,-318.25287538088776,10.174221269738752,176.7611346632421
0.337168584292146,0.06114347576617959,0.007638523814268729,-0.03395975650101973,0.6679289739935582,0.10183767379174771,-0.3709750718709426,4.2988193186719075,1.015086108197338,-2.3876113595873445,-3.421802973000773,6.379169755911405,1.9005068701344534,-319.3786601008419,10.008870562170104,177.3864078339791
0.3381690845422711,0.06181422646729527,0.007740973054147002,-0.034332298791057106,0.672230328670039,0.1028569736420176,-0.37336409139604126,4.295233895978242,1.021476650284263,-2.3856199765312702,-3.7420557854914875,6.38910565483153,2.078378791785532,-320.4828524866996,9.842963115358216,177.9996883857329
0.3391695847923962,0.062489280978863714,0.007844445817520924,-0.034707231464584654,0.6765279337039937,0.10388267538145625,-0.3757510283285899,4.291327350314651,1.0278770550037366,-2.383450238258576,-4.063403048555649,6.398875203709803,2.256858583278877,-321.56535643176596,9.676504028096094,178.60092293979096
0.3401700850425212,0.0631686353864238,0.00794894851760131,-0.03508455234746773,0.6808214671063164,0.10491478879913509,-0.3781357038323097,4.28709859701685,1.0342871555636777,-2.3811015423348234,-4.385823004457244,6.408477852904232,2.4359341601295874,-322.62607706768506,9.509498396054685,179.190058805229
0.3411705852926463,0.06385228545266335,0.008054487577314213,-0.03546425908625675,0.6851106058130685,0.10595332351689202,-0.38051793847394877,4.282546573247387,1.040706784624367,-2.378573298448444,-4.709293801116772,6.417913057872029,2.6155933854533266,-323.66492076443524,9.341951311782644,179.7670439789082
0.34217108554277137,0.06454022661635378,0.008161069429133208,-0.0358463491475954,0.689395025707372,0.10699828898878559,-0.38289755223544086,4.277670238089467,1.0471357743035472,-2.375864928462849,-5.0337934933509985,6.427180279166493,2.7958240706546036,-324.6817951303394,9.17386786470648,180.33182714547632
0.3431715857928964,0.06523245399130781,0.00826870051491121,-0.03623081981764161,0.6936744016413999,0.10804969450055492,-0.3852743645261203,4.272468572639555,1.0535739561815247,-2.3729758664678373,-5.359300044111983,6.436278982433874,2.976613976115697,-325.6766090120542,9.005253141130465,180.88435767736922
0.34417208604302146,0.0659289623653576,0.008377387285711699,-0.03661766820150036,0.697948407458459,0.10910754916908375,-0.38764819419498486,4.266940580098643,1.0600211613062644,-2.3699055588303324,-5.685791325727287,6.445208638410262,3.1579508118847635,-326.6492724945758,8.836112224236684,181.42458563480824
0.34517258629314657,0.0666297461993567,0.008487136201639416,-0.037006891222668974,0.702216716015158,0.1101718619418704,-0.3900188595430109,4.261085285862416,1.0664772201984831,-2.3666534642444,-6.013245121139207,6.453968722918446,3.339822238364473,-327.5996969012392,8.666450194085064,181.9524617658014
0.3461730865432716,0.06733479962620319,0.008597953731670577,-0.03739848562249469,0.7064789992036751,0.11124264159650259,-0.39238617833551714,4.254901737610056,1.0729419628567416,-2.3632190537806315,-6.34163912514407,6.462558716864811,3.5222158670003516,-328.52779479371884,8.496272127613233,182.46793750614466
0.34717358679339666,0.0680441164498854,0.008709846353482497,-0.03779244795964482,0.7107349279740994,0.11231989674013704,-0.394749967814578,4.248389005391871,1.0794152187625285,-2.359601810934778,-6.670950945632491,6.470978106236189,3.705119260969358,-329.43347997202704,8.325583098636722,182.97096497941993
0.34817408704352176,0.06875769014455044,0.008822820553282765,-0.03818877460958906,0.7149841723568753,0.11340363580898469,-0.39711004471148575,4.241546181715718,1.0858968168853484,-2.3558012316757546,-7.001158104828747,6.479226382096747,3.8885199358684694,-330.316667474512,8.154388177848753,183.46149699699538
0.3491745872936468,0.06947551385359454,0.008936882825637857,-0.03858746176409462,0.7192264014853215,0.11449386706780083,-0.39946622525925923,4.234372381632042,1.0923865856878003,-2.3518168244928783,-7.33223804052971,6.487303040584856,4.072405360402978,-331.17727357786555,7.982692432820456,183.93948705802705
0.35017508754377186,0.0701975803887763,0.009052039673301225,-0.03898850543073339,0.7234612836182388,0.1155905986093797,-0.40181832520520244,4.2268667428178155,1.0988843531306527,-2.347648110442499,-7.664168107345148,6.495207582909976,4.256762957074894,-332.0152157971139,7.810500928000723,184.40488934945728
0.3511755877938969,0.07092388222935313,0.009168297607040974,-0.03939190143240257,0.7276884861625997,0.11669383835405535,-0.40416615982350224,4.219028425659212,1.1053899466779251,-2.3432946231938896,-7.996925577937283,6.5029395153495075,4.4415801028717325,-332.8304128856216,7.637818724716208,184.8576587460144
0.352176088044022,0.07165441152123934,0.00928566314546692,-0.03979764540685686,0.7319076756963249,0.11780359404920637,-0.40650954392788163,4.210856613332983,1.1119031933019523,-2.338755909074462,-8.330487644259868,6.510498349245696,4.62684412995463,-333.6227848350942,7.464650881171406,185.29775081021478
0.35317658829414705,0.0723891600761883,0.009404142814857267,-0.04020573280625435,0.7361185179911324,0.11891987326876677,-0.40884829188428995,4.2023505118866415,1.1184239194884573,-2.3340315271143135,-8.664831418798158,6.517883601002479,4.812542326347266,-334.3922528755742,7.291002452448592,185.7251217923614
0.3541770885442721,0.07312811937099635,0.009523743148984715,-0.0406161588967143,0.7403206780354736,0.12004268341274099,-0.41118221762364243,4.193509350317374,1.1249519512416164,-2.32912104909002,-8.99993393580872,6.5250947920823865,4.998661936623851,-335.1387394754423,7.116878490507885,186.1397286305418
0.35517758879439715,0.07387128054673059,0.009644470688942116,-0.04102891875788836,0.7445138200575436,0.12117203170672464,-0.4135111346545987,4.184332380649698,1.131487114089114,-2.3240240595678197,-9.335772152557823,6.532131449003402,5.185190162597614,-335.86216834141965,6.942284044187062,186.54152895063396
0.35617808904452225,0.07461863440797926,0.009766331982967672,-0.04144400728254399,0.7486976075483724,0.12230792520143004,-0.41583485607638815,4.17481887801202,1.1380292330872162,-2.3187401559460703,-9.672322950562808,6.538993103335825,5.372114164009979,-336.5624644185614,6.767224159201959,186.93048106629857
0.3571785892946473,0.0753701714221257,0.00988933358626962,-0.04186141917616151,0.7528717032849828,0.12345037077221653,-0.4181531945916751,4.164968140711741,1.1445781328258104,-2.313268948497009,-10.009563136830266,6.545679291699182,5.559421059218224,-337.2395538902671,6.591703878145876,187.3065439789882
0.35817908954477234,0.07612588171864466,0.010013482060850482,-0.042281148956542995,0.7570357693536406,0.12459937511862683,-0.4204659625194673,4.154779490309203,1.1511336374334697,-2.3076100604078364,-10.34746944509638,6.552189555759042,5.747097925884283,-337.8933641782694,6.4157282404902425,187.66967737793516
0.35917958979489745,0.07688575508842332,0.010138783975330858,-0.04270319095343527,0.7611894671731573,0.12575494476392732,-0.4227729718080634,4.144252271690508,1.1576955705824976,-2.301763127821097,-10.686018537065564,6.5585234422239695,5.935131801663346,-338.52382394264384,6.239302282584059,188.019841640165
0.3601800900450225,0.07764978098310416,0.010265245904772706,-0.04312753930816502,0.7653324575182816,0.12691708605465368,-0.42507403404804056,4.13338585313892,1.1642637554939728,-2.295727799874391,-11.025187003651205,6.564680502842319,6.123509684892035,-339.1308630818006,6.0624310376542425,188.3569978304867
0.36118059029514754,0.07841794851445252,0.010392874430502245,-0.04355418797328732,0.7694644005431489,0.12808580516016216,-0.42736896048528095,4.12217962640517,1.1708380149427993,-2.289503738739424,-11.364951366214946,6.570660294399184,6.3122185352771325,-339.7144127324914,5.885119535805394,188.68110770149752
0.3621810905452726,0.07919024645374649,0.010521676139932344,-0.04398313071224707,0.7735849558048169,0.12926110807218533,-0.4296575620340445,4.110633006776369,1.1774181712627367,-2.283090619660235,-11.70528807780552,6.576462378713195,6.501245274584072,-340.27440526980354,5.707372804020087,188.9921336935792
0.3631815907953977,0.07996666323119171,0.010651657626384536,-0.044414361099053626,0.7776937822868487,0.13044300060439293,-0.4319396492900644,4.098745433143893,1.1840040463514467,-2.276488130990957,-12.046173524399137,6.58208632263346,6.690576787325128,-340.8107743071648,5.529195866158598,189.29003893490284
0.36418209104552274,0.08074718693535898,0.010782825488910547,-0.04484787251796865,0.7817905384229794,0.13163148839195787,-0.43421503254369354,4.086516368069776,1.190595461675522,-2.26969597423264,-12.387584026138384,6.587531698036423,6.880199921448138,-341.3234546963423,5.350593742958889,189.57478724142499
0.3651825912956478,0.08153180531264531,0.010915186332113374,-0.045283658163206855,0.7858748821208431,0.13282657689112737,-0.43648352179308414,4.07394529785206,1.1971922382755165,-2.2627138640695956,-12.729495838572731,6.5927980818227,7.070101489025049,-341.8123825274372,5.171571452036925,189.84634311688882
0.3661830915457729,0.08232050576675977,0.011048746765968027,-0.04572171103865015,0.7899464707857655,0.13402827137879889,-0.4387449267573982,4.0610317325888285,1.2037941967709755,-2.2555415284049287,-13.071885153897412,6.5978850559139985,7.26026826694001,-342.27749512889534,4.992134007886376,190.10467175282542
0.36718359179589793,0.08311327535823211,0.011183513405641714,-0.046162023957574974,0.7940049613446167,0.1352365769521012,-0.44099905689006114,4.047775206240981,1.2104011573654596,-2.2481787083954234,-13.41472810219274,6.602792207249982,7.450686997578217,-342.7187310674965,4.812286421878703,190.34973902855052
0.368184092046023,0.08391010080394642,0.011319492871313773,-0.046604589542393104,0.7980500102697323,0.13645149852798072,-0.4432457213920429,4.034175276693821,1.2170129398515666,-2.240625158485718,-13.758000752664742,6.60751912778513,7.641344389514259,-343.13603014835996,4.632033702263125,190.5815115111683
0.36918459229614803,0.08471096847669729,0.011456691787995018,-0.047049400224405465,0.8020812736028865,0.13767304084279225,-0.4454847292251748,4.020231525817329,1.2236293636159468,-2.23288064644183,-14.101679114883623,6.612065414485617,7.832227118200741,-343.5293334149437,4.451380854166803,190.79995645557005
0.37018509254627313,0.08551586440477157,0.011595116785346832,-0.04749644824356938,0.8060984069793367,0.13890120845189555,-0.4477158891255063,4.005943559525282,1.2302502476443216,-2.2249449533839454,-14.445739140024202,6.616430669326211,8.023321826656478,-343.89858314904404,4.270332879594584,191.00504180443124
0.3711855927963982,0.08632477427155351,0.011734774497499753,-0.04794572564827949,0.810101065651917,0.1401360057292563,-0.4499390096166829,3.991311007833037,1.2368754105264945,-2.216817873818542,-14.790156722104442,6.6206144992871065,8.214615126154918,-344.24372287079575,4.088894777429095,191.19673618821741
0.3721860930465232,0.08713768341515316,0.011875671562871707,-0.04839722429516158,0.814088904515194,0.14137743686705218,-0.4521538990233633,3.9763335249141667,1.2435046704613584,-2.208499215669828,-15.134907699226531,6.624616516350848,8.406093596913216,-344.56469733867334,3.9070715434308716,191.37500892517846
0.3731865932966483,0.0879545768280609,0.012017814623985852,-0.04885093584888029,0.8180615781296744,0.14262550587528458,-0.45436036548467085,3.961010789155808,1.2501378452619045,-2.199988800310495,-15.479967854815044,6.6284363374991555,8.597743788779994,-344.8614525494884,3.7248681702381115,191.53983002135294
