t,posx,posy,posz,velx,vely,velz,accx,accy,accz,jerkx,jerky,jerkz,snapx,snapy,snapz
0.0,0.0,0.0,-2.2131504837516694e-17,0.0,0.0,-1.2830637484808252e-17,0.0,0.0,-6.57181580235831e-18,0.0,0.0,-2.7406872220526107e-18,0.0,0.0,-7.427227585107372e-19
0.010050251256281407,0.0,0.0,3.3804033909978466e-09,0.0,0.0,1.664643567958383e-06,0.0,0.0,0.0006540722120074676,0.0,0.0,0.19173220744011646,0.0,0.0,36.968385611116695
0.020100502512562814,0.0,0.0,1.0539954053780432e-07,0.0,0.0,2.5814247930173147e-05,0.0,0.0,0.00503087473901611,0.0,0.0,0.7273646341191481,0.0,0.0,68.1534582732597
0.03015075376884422,0.0,0.0,7.796884184094961e-07,0.0,0.0,0.0001266185947624145,0.0,0.0,0.016315318363042515,0.0,0.0,1.5503200433157556,0.0,0.0,93.91807293524874
0.04020100502512563,0.0,0.0,3.1999648674256514e-06,0.0,0.0,0.00038759392869885885,0.0,0.0,0.03713918693626906,0.0,0.0,2.607641609560239,0.0,0.0,114.61621607608873
0.05025125628140704,0.0,0.0,9.50886260317985e-06,0.0,0.0,0.0009161989893174213,0.0,0.0,0.06961725476488281,0.0,0.0,3.8499033381313583,0.0,0.0,130.59300570496976
0.06030150753768844,0.0,0.0,2.3034001901239142e-05,0.0,0.0,0.0018387912952165654,0.0,0.0,0.1153824991393468,0.0,0.0,5.231120484553154,0.0,0.0,142.18469136126726
0.07035175879396985,0.0,0.0,4.8454894633724226e-05,0.0,0.0,0.003295934540248562,0.0,0.0,0.17562040801110426,0.0,0.0,6.708659974091768,0.0,0.0,149.71865411454183
0.08040201005025126,0.0,0.0,9.192418409382084e-05,0.0,0.0,0.005438047961974142,0.0,0.0,0.2511023828157148,0.0,0.0,8.243150821252259,0.0,0.0,153.5134065645393
0.09045226130653267,0.0,0.0,0.00016114662771179777,0.0,0.0,0.008421388542403582,0.0,0.0,0.34221823644242344,0.0,0.0,9.798394549275438,0.0,0.0,153.8785928411907
0.10050251256281408,0.0,0.0,0.0002654191384435297,0.0,0.0,0.012404356901089115,0.0,0.0,0.4490077863501628,0.0,0.0,11.341275609634668,0.0,0.0,151.11498860461228
0.11055276381909548,0.0,0.0,0.0004156351082899473,0.0,0.0,0.017544117740633677,0.0,0.0,0.5711915428299856,0.0,0.0,12.841671801532694,0.0,0.0,145.51450104510567
0.12060301507537688,0.0,0.0,0.0006242561450832627,0.0,0.0,0.023993525704681048,0.0,0.0,0.7082004924139331,0.0,0.0,14.272364691398481,0.0,0.0,137.3601688831575
0.1306532663316583,0.0,0.0,0.0009052542613532408,0.0,0.0,0.031898347508452184,0.0,0.0,0.8592049764303332,0.0,0.0,15.608950032384001,0.0,0.0,126.92616236943991
0.1407035175879397,0.0,0.0,0.0012740274617642074,0.0,0.0,0.04139477120189287,0.0,0.0,1.0231426647055324,0.0,0.0,16.82974818386107,0.0,0.0,114.47778328480986
0.15075376884422112,0.0,0.0,0.0017472915832909186,0.0,0.0,0.05260719342549756,0.0,0.0,1.1987456244120593,0.0,0.0,17.91571453091817,0.0,0.0,100.27146494031018
0.16080402010050251,0.0,0.0,0.002342951149978836,0.0,0.0,0.06564627551887459,0.0,0.0,1.3845664840632226,0.0,0.0,18.85034990385729,0.0,0.0,84.55477217716818
0.1708542713567839,0.0,0.0,0.003079951911811761,0.0,0.0,0.0806072593421174,0.0,0.0,1.5790036926541395,0.0,0.0,19.619610997690703,0.0,0.0,67.56640136679658
0.18090452261306533,0.0,0.0,0.003978117644887226,0.0,0.0,0.0975685336700469,0.0,0.0,1.780325873949197,0.0,0.0,20.2118207916378,0.0,0.0,49.53618041079415
0.19095477386934673,0.0,0.0,0.005057973697777485,0.0,0.0,0.11659044201939033,0.0,0.0,1.9866952759159484,0.0,0.0,20.617578968621938,0.0,0.0,30.685068740943585
0.20100502512562815,0.0,0.0,0.00634055967663128,0.0,0.0,0.13771432276896076,0.0,0.0,2.196190315305436,0.0,0.0,20.82967233476723,0.0,0.0,11.225157319213942
0.21105527638190955,0.0,0.0,0.007847233569249096,0.0,0.0,0.16096177243290272,0.0,0.0,2.406827217378955,0.0,0.0,20.842985238895405,0.0,0.0,-8.640331362241284
0.22110552763819097,0.0,0.0,0.009599469516042004,0.0,0.0,0.1863341229470697,0.0,0.0,2.6165807507812437,0.0,0.0,20.654409992022526,0.0,0.0,-28.717043281082752
0.23115577889447236,0.0,0.0,0.011618651343461527,0.0,0.0,0.21381212382859655,0.0,0.0,2.8234040575601074,0.0,0.0,20.26275728685601,0.0,0.0,-48.81949288478663
0.24120603015075376,0.0,0.0,0.013925863883165546,0.0,0.0,0.24335582006873321,0.0,0.0,3.025247578332472,0.0,0.0,19.668666617291194,0.0,0.0,-68.77106309064303
0.25125628140703515,0.0,0.0,0.016541684007862587,0.0,0.0,0.2749046166190056,0.0,0.0,3.2200770725968857,0.0,0.0,18.874516697908327,0.0,0.0,-88.40400528575728
0.2613065326633166,0.0,0.0,0.019485973222454215,0.0,0.0,0.30837752033076543,0.0,0.0,3.4058907341924196,0.0,0.0,17.88433588346946,0.0,0.0,-107.55943932704974
0.271356783919598,0.0,0.0,0.022777673556772786,0.0,0.0,0.3436735502081976,0.0,0.0,3.580735401904051,0.0,0.0,16.703712588414902,0.0,0.0,-126.08735354125477
0.2814070351758794,0.0,0.0,0.026434608413889216,0.0,0.0,0.380672306834848,0.0,0.0,3.742721865214418,0.0,0.0,15.339705706360586,0.0,0.0,-143.84660472492268
0.2914572864321608,0.0,0.0,0.030473289935642748,0.0,0.0,0.4192346918337366,0.0,0.0,3.890039265202071,0.0,0.0,13.800755029594345,0.0,0.0,-160.70491814441652
0.30150753768844224,0.0,0.0,0.03490873435472238,0.0,0.0,0.4592037682211233,0.0,0.0,4.020968590586099,0.0,0.0,12.096591668573186,0.0,0.0,-176.53888753591661
0.31155778894472363,0.0,0.0,0.03975428671030644,0.0,0.0,0.5004057525139859,0.0,0.0,4.133895268917229,0.0,0.0,10.238148471419805,0.0,0.0,-191.23397510541662
0.32160804020100503,0.0,0.0,0.045021456211945074,0.0,0.0,0.5426511294512842,0.0,0.0,4.2273208529153345,0.0,0.0,8.237470443419479,0.0,0.0,-204.68451152872467
0.3316582914572864,0.0,0.0,0.05071976344404741,0.0,0.0,0.5857358801890653,0.0,0.0,4.2998738019533995,0.0,0.0,6.107625166517035,0.0,0.0,-216.793695951465
0.3417085427135678,0.0,0.0,0.05685660051101202,0.0,0.0,0.6294428148294803,0.0,0.0,4.350319358687879,0.0,0.0,3.862613218813493,0.0,0.0,-227.47359598907622
0.35175879396984927,0.0,0.0,0.06343710513071786,0.0,0.0,0.6735430001437801,0.0,0.0,4.377568520835541,0.0,0.0,1.5172785940627875,0.0,0.0,-236.64514772680934
0.36180904522613067,0.0,0.0,0.0704640495917695,0.0,0.0,0.7177972733493484,0.0,0.0,4.380686108096674,0.0,0.0,-0.9127808788309295,0.0,0.0,-244.23815571973398
0.37185929648241206,0.0,0.0,0.07793774539756836,0.0,0.0,0.761957832800842,0.0,0.0,4.35889792422482,0.0,0.0,-3.4113031163170504,0.0,0.0,-250.19129299273175
0.38190954773869346,0.0,0.0,0.08585596432795771,0.0,0.0,0.8057698964554997,0.0,0.0,4.311597014242847,0.0,0.0,-5.961451360701297,0.0,0.0,-254.45210104050022
0.3919597989949749,0.0,0.0,0.09421387655686966,0.0,0.0,0.8489734189726921,0.0,0.0,4.238349016805482,0.0,0.0,-8.54590376064914,0.0,0.0,-256.97698982755117
0.4020100502512563,0.0,0.0,0.10300400637207582,0.0,0.0,0.891304858307765,0.0,0.0,4.138896611708361,0.0,0.0,-11.146942951688757,0.0,0.0,-257.73123778821207
0.4120603015075377,0.0,0.0,0.1122162059508248,0.0,0.0,0.9324989826602523,0.0,0.0,4.013163062543337,0.0,0.0,-13.746545636714231,0.0,0.0,-256.6889918266238
0.4221105527638191,0.0,0.0,0.1218376475528227,0.0,0.0,0.9722907086365185,0.0,0.0,3.8612548545004257,0.0,0.0,-16.326472166489282,0.0,0.0,-253.83326731674424
0.4321608040201005,0.0,0.0,0.13185283439969506,0.0,0.0,1.0104169614869034,0.0,0.0,3.683463427315985,0.0,0.0,-18.868356120149613,0.0,0.0,-249.15594810234143
0.44221105527638194,0.0,0.0,0.14224363041774182,0.0,0.0,1.0466185482774102,0.0,0.0,3.480266003367495,0.0,0.0,-21.353793885706537,0.0,0.0,-242.65778649700428
0.45226130653266333,0.0,0.0,0.1529893089284774,0.0,0.0,1.0806420348560417,0.0,0.0,3.2523255109146483,0.0,0.0,-23.764434240549747,0.0,0.0,-234.3484032841327
0.4623115577889447,0.0,0.0,0.16406662027912342,0.0,0.0,1.1122416174738046,0.0,0.0,3.00048960248699,0.0,0.0,-26.08206793195157,0.0,0.0,-224.24628771694233
0.4723618090452261,0.0,0.0,0.1754498783128996,0.0,0.0,1.1411809799204875,0.0,0.0,2.7257887684178197,0.0,0.0,-28.288717257568976,0.0,0.0,-212.37879751846162
0.4824120603015075,0.0,0.0,0.18711106548663692,0.0,0.0,1.1672351270352477,0.0,0.0,2.429433545524713,0.0,0.0,-30.366725645947156,0.0,0.0,-198.7821588815391
0.49246231155778897,0.0,0.0,0.19901995635091263,0.0,0.0,1.1901921854520883,0.0,0.0,2.1128108209363994,0.0,0.0,-32.29884723702281,0.0,0.0,-183.50146646883059
0.5025125628140703,0.0,0.0,0.21114425901558437,0.0,0.0,1.2098551624402938,0.0,0.0,1.777479231065957,0.0,0.0,-34.068336462627485,0.0,0.0,-166.59068341281227
0.5125628140703518,0.0,0.0,0.22344977413128286,0.0,0.0,1.226043653699848,0.0,0.0,1.4251636557307172,0.0,0.0,-35.65903762698997,0.0,0.0,-148.1126413157749
0.5226130653266332,0.0,0.0,0.23590057082508858,0.0,0.0,1.2385954909719894,0.0,0.0,1.0577488074181822,0.0,0.0,-37.05547448724013,0.0,0.0,-128.13904024982185
0.5326633165829145,0.0,0.0,0.2484591789363114,0.0,0.0,1.2473683203248447,0.0,0.0,0.6772719156990483,0.0,0.0,-38.2429398339134,0.0,0.0,-106.75044875686899
0.542713567839196,0.0,0.0,0.26108679680595204,0.0,0.0,1.2522411019743371,0.0,0.0,0.28591450678566943,0.0,0.0,-39.20758507145007,0.0,0.0,-84.03630384865528
0.5527638190954774,0.0,0.0,0.2737435137811187,0.0,0.0,1.253115522500316,0.0,0.0,-0.11400672176194604,0.0,0.0,-39.9365097987033,0.0,0.0,-60.09491100672312
0.5628140703517588,0.0,0.0,0.28638854650333667,0.0,0.0,1.249917310318072,0.0,0.0,-0.5200499311846869,0.0,0.0,-40.417851389437715,0.0,0.0,-35.03344418244296
0.5728643216080402,0.0,0.0,0.29898048795736637,0.0,0.0,1.242597445265209,0.0,0.0,-0.9296590765254749,0.0,0.0,-40.64087457283722,0.0,0.0,-8.967945796985987
0.5829145728643216,0.0,0.0,0.3114775681648442,0.0,0.0,1.2311332531640309,0.0,0.0,-1.3401757464851656,0.0,0.0,-40.596061014003794,0.0,0.0,17.976673258652227
0.592964824120603,0.0,0.0,0.32383792531469446,0.0,0.0,1.2155293762194477,0.0,0.0,-1.7488519081307246,0.0,0.0,-40.27519889446387,0.0,0.0,45.666633623663984
0.6030150753768845,0.0,0.0,0.33601988602999133,0.0,0.0,1.1958186101124832,0.0,0.0,-2.1528635564580583,0.0,0.0,-39.67147249266907,0.0,0.0,73.95928746742902
0.6130653266331658,0.0,0.0,0.34798225337858285,0.0,0.0,1.1720625986493927,0.0,0.0,-2.5493252688076353,0.0,0.0,-38.779551764502116,0.0,0.0,102.70311848950678
0.6231155778894473,0.0,0.0,0.3596846011424889,0.0,0.0,1.1443523768266521,0.0,0.0,-2.935305664134276,0.0,0.0,-37.59568192377765,0.0,0.0,131.73774191964822
0.6331658291457286,0.0,0.0,0.37108757276876325,0.0,0.0,1.1128087531715867,0.0,0.0,-3.3078437671299667,0.0,0.0,-36.117773022746405,0.0,0.0,160.8939045177858
0.6432160804020101,0.0,0.0,0.3821531833321713,0.0,0.0,1.07758252221893,0.0,0.0,-3.663966277200643,0.0,0.0,-34.34548953259775,0.0,0.0,189.99348457403903
0.6532663316582915,0.0,0.0,0.3928451227477331,0.0,0.0,1.0388544979833352,0.0,0.0,-4.0007057422964465,0.0,0.0,-32.28033992396399,0.0,0.0,218.84949190870975
0.6633165829145728,0.0,0.0,0.40312905837883517,0.0,0.0,0.9968353592878056,0.0,0.0,-4.315119637595259,0.0,0.0,-29.925766247422985,0.0,0.0,247.26606787228957
0.6733668341708543,0.0,0.0,0.41297293509432575,0.0,0.0,0.9517652978082403,0.0,0.0,-4.604310349040446,0.0,0.0,-27.28723371400031,0.0,0.0,275.03848534544704
0.6834170854271356,0.0,0.0,0.42234727073564504,0.0,0.0,0.9039134596940919,0.0,0.0,-4.865446061731305,0.0,0.0,-24.372320275675975,0.0,0.0,301.95314873905045
0.6934673366834171,0.0,0.0,0.43122544486274106,0.0,0.0,0.8535771716251634,0.0,0.0,-5.095782553167851,0.0,0.0,-21.190806205882154,0.0,0.0,327.7875939941441
0.7035175879396985,0.0,0.0,0.439583978555226,0.0,0.0,0.8010809421647007,0.0,0.0,-5.292685891348867,0.0,0.0,-17.754763680008637,0.0,0.0,352.31048858195027
0.7135678391959799,0.0,0.0,0.44740280295282675,0.0,0.0,0.7467752292688026,0.0,0.0,-5.453656037723533,0.0,0.0,-14.07864635591045,0.0,0.0,375.281631503889
0.7236180904522613,0.0,0.0,0.4546655141269573,0.0,0.0,0.6910349648121823,0.0,0.0,-5.576351354996376,0.0,0.0,-10.179378954403546,0.0,0.0,396.4519532915583
0.7336683417085427,0.0,0.0,0.461359611782858,0.0,0.0,0.6342578269903356,0.0,0.0,-5.658614019785972,0.0,0.0,-6.0764468397740075,0.0,0.0,415.56351600675225
0.7437185929648241,0.0,0.0,0.46747671919940403,0.0,0.0,0.5768622514583903,0.0,0.0,-5.698496340137638,0.0,0.0,-1.7919856002765755,0.0,0.0,432.3495132414246
0.7537688442211056,0.0,0.0,0.47301278172146244,0.0,0.0,0.5192851720662723,0.0,0.0,-5.694287977889246,0.0,0.0,2.6491293713565938,0.0,0.0,446.53427011775057
0.7638190954773869,0.0,0.0,0.4779682410272228,0.0,0.0,0.4619794820507188,0.0,0.0,-5.644544075890451,0.0,0.0,7.219193297420816,0.0,0.0,457.83324328805793
0.7738693467336684,0.0,0.0,0.4823481823007305,0.0,0.0,0.4054112065439952,0.0,0.0,-5.548114290075716,0.0,0.0,11.887582434726028,0.0,0.0,465.95302093488317
0.7839195979899498,0.0,0.0,0.48616245134738634,0.0,0.0,0.35005637725909367,0.0,0.0,-5.404172726391096,0.0,0.0,16.62066449410122,0.0,0.0,470.59132277092976
0.7939698492462312,0.0,0.0,0.4894257385980514,0.0,0.0,0.29639760021224504,0.0,0.0,-5.21224878257442,0.0,0.0,21.381709059887726,0.0,0.0,471.43700003910817
0.8040201005025126,0.0,0.0,0.49215762685483533,0.0,0.0,0.24492030734191417,0.0,0.0,-4.9722588947884105,0.0,0.0,26.13079800943933,0.0,0.0,468.17003551247944
0.8140703517587939,0.0,0.0,0.4943825995395521,0.0,0.0,0.1961086828848977,0.0,0.0,-4.684539189108932,0.0,0.0,30.824735932611475,0.0,0.0,460.4615434943262
0.8241206030150754,0.0,0.0,0.4961300061132867,0.0,0.0,0.150441255369671,0.0,0.0,-4.349879037865605,0.0,0.0,35.41696055127022,0.0,0.0,447.9737698180943
0.8341708542713568,0.0,0.0,0.49743398124346605,0.0,0.0,0.108386146086211,0.0,0.0,-3.9695555208346036,0.0,0.0,39.85745313877169,0.0,0.0,430.36009184743307
0.8442211055276382,0.0,0.0,0.49833331420212,0.0,0.0,0.07039596489396871,0.0,0.0,-3.5453687912902865,0.0,0.0,44.092648939485116,0.0,0.0,407.2650184761478
0.8542713567839196,0.0,0.0,0.4988712648872111,0.0,0.0,0.03690234422598593,0.0,0.0,-3.0796783469024263,0.0,0.0,48.06534758825592,0.0,0.0,378.32419012827086
0.864321608040201,0.0,0.0,0.49909532276593094,0.0,0.0,0.008310102151135368,0.0,0.0,-2.5754402054941465,0.0,0.0,51.71462352993103,0.0,0.0,343.16437875797783
0.8743718592964824,0.0,0.0,0.4990569049473379,0.0,0.0,-0.015008974646860906,0.0,0.0,-2.0362449856504554,0.0,0.0,54.975736438845615,0.0,0.0,301.4034878496459
0.8844221105527639,0.0,0.0,0.4988109894985122,0.0,0.0,-0.03272273711259288,0.0,0.0,-1.4663568921786236,0.0,0.0,57.78004163831383,0.0,0.0,252.65055241785012
0.8944723618090452,0.0,0.0,0.49841568002691794,0.0,0.0,-0.04454567842468293,0.0,0.0,-0.8707536064265469,0.0,0.0,60.05490052013738,0.0,0.0,196.50573900733434
0.9045226130653267,0.0,0.0,0.4979316974586627,0.0,0.0,-0.05024634610425949,0.0,0.0,-0.2551670814514182,0.0,0.0,61.72359096409309,0.0,0.0,132.56034569303665
0.914572864321608,0.0,0.0,0.49742179485044247,0.0,0.0,-0.04965517076571757,0.0,0.0,0.3738747579603796,0.0,0.0,62.70521775742964,0.0,0.0,60.39680208007121
0.9246231155778895,0.0,0.0,0.496950090980512,0.0,0.0,-0.042672720649420626,0.0,0.0,1.0090054104118735,0.0,0.0,62.9146230143715,0.0,0.0,-20.411330696260848
0.9346733668341709,0.0,0.0,0.49658131837159836,0.0,0.0,-0.029278391077042443,0.0,0.0,1.641976288167939,0.0,0.0,62.2622965956125,0.0,0.0,-110.29935997045322
0.9447236180904522,0.0,0.0,0.4963799813064895,0.0,0.0,-0.009539537969004641,0.0,0.0,2.2636123025725965,0.0,0.0,60.654286527807926,0.0,0.0,-209.71146154683447
0.9547738693467337,0.0,0.0,0.4964094193047881,0.0,0.0,0.016378935435753306,0.0,0.0,2.863766544609007,0.0,0.0,57.992109423081274,0.0,0.0,-319.10067969956435
0.964824120603015,0.0,0.0,0.496730771436507,0.0,0.0,0.0482045295186424,0.0,0.0,3.431274060612168,0.0,0.0,54.172660898508184,0.0,0.0,-438.928927172572
0.9748743718592965,0.0,0.0,0.49740183675676874,0.0,0.0,0.08554662773718746,0.0,0.0,3.9539047231205586,0.0,0.0,49.0881259956268,0.0,0.0,-569.666985179636
0.9849246231155779,0.0,0.0,0.4984758260523954,0.0,0.0,0.12788549545999217,0.0,0.0,4.418315196882531,0.0,0.0,42.62588959992263,0.0,0.0,-711.7945034043369
0.9949748743718593,0.0,0.0,0.499999999999968,0.0,0.0,0.1745607890393046,0.0,0.0,4.809999999999263,0.0,0.0,34.66844686033528,0.0,0.0,-865.8000000000757
1.0050251256281406,0.0,0.0,0.5,0.0,0.0,0.17456078903983246,0.0,0.0,4.809999999999725,0.0,0.0,34.66844686034235,0.0,0.0,-865.8000000000737
1.015075376884422,0.0,0.0,0.5020142091026153,0.0,0.0,0.22476965745149483,0.0,0.0,5.117245576028427,0.0,0.0,26.286301955542477,0.0,0.0,-794.4442713664779
1.0251256281407035,0.0,0.0,0.5045498435511081,0.0,0.0,0.2776665078683357,0.0,0.0,5.343404525653114,0.0,0.0,18.607521955064446,0.0,0.0,-726.5176522769821
1.035175879396985,0.0,0.0,0.5076300373649865,0.0,0.0,0.3324675808853354,0.0,0.0,5.495408245295471,0.0,0.0,11.597955102149088,0.0,0.0,-661.92417585886
1.0452261306532664,0.0,0.0,0.5112703555840119,0.0,0.0,0.3884574053753698,0.0,0.0,5.57984803905395,0.0,0.0,5.224412809140845,0.0,0.0,-600.5691015023192
1.0552763819095476,0.0,0.0,0.5154794668638172,0.0,0.0,0.4449854121388521,0.0,0.0,5.6029847851265675,0.0,0.0,-0.5453427290064885,0.0,0.0,-542.3589148604999
1.065326633165829,0.0,0.0,0.5202597823569687,0.0,0.0,0.5014626445621087,0.0,0.0,5.5707584771175975,0.0,0.0,-5.7426109212240215,0.0,0.0,-487.2013278494767
1.0753768844221105,0.0,0.0,0.5256080618529823,0.0,0.0,0.5573585650206913,0.0,0.0,5.488797640228154,0.0,0.0,-10.397765166822087,0.0,0.0,-435.0052786482572
1.085427135678392,0.0,0.0,0.5315159881380274,0.0,0.0,0.612197955763826,0.0,0.0,5.362428622330669,0.0,0.0,-14.54026524198448,0.0,0.0,-385.68093169878256
1.0954773869346734,0.0,0.0,0.5379707105222901,0.0,0.0,0.6655579130161995,0.0,0.0,5.196684759927274,0.0,0.0,-18.19866968626277,0.0,0.0,-339.1396777059278
1.105527638190955,0.0,0.0,0.5449553584702076,0.0,0.0,0.7170649330332831,0.0,0.0,4.99631541899208,0.0,0.0,-21.40064818907056,0.0,0.0,-295.2941336375007
1.1155778894472361,0.0,0.0,0.5524495262560073,0.0,0.0,0.7663920888463998,0.0,0.0,4.765794910697329,0.0,0.0,-24.17299397617774,0.0,0.0,-254.0581427242433
1.1256281407035176,0.0,0.0,0.5604297295542305,0.0,0.0,0.8132562964337264,0.0,0.0,4.509331282023478,0.0,0.0,-26.541636196204806,0.0,0.0,-215.34677445983073
1.135678391959799,0.0,0.0,0.5688698348621494,0.0,0.0,0.857415669053443,0.0,0.0,4.230874981253154,0.0,0.0,-28.531652307117138,0.0,0.0,-179.07632460087154
1.1457286432160805,0.0,0.0,0.5777414626382203,0.0,0.0,0.8986669584752209,0.0,0.0,3.934127398349016,0.0,0.0,-30.167280462719276,0.0,0.0,-145.164315166908
1.155778894472362,0.0,0.0,0.5870143650279515,0.0,0.0,0.9368430818462556,0.0,0.0,3.622549280215505,0.0,0.0,-31.471931899149094,0.0,0.0,-113.5294944404158
1.1658291457286432,0.0,0.0,0.5966567790357998,0.0,0.0,0.971810732928044,0.0,0.0,3.2993690208444932,0.0,0.0,-32.468203321372265,0.0,0.0,-84.09183696680408
1.1758793969849246,0.0,0.0,0.6066357559889398,0.0,0.0,1.003468076440108,0.0,0.0,2.9675908263448383,0.0,0.0,-33.177889289676415,0.0,0.0,-56.77254355441565
1.185929648241206,0.0,0.0,0.6169174681259896,0.0,0.0,1.031742524246862,0.0,0.0,2.6300027548558274,0.0,0.0,-33.6219946061654,0.0,0.0,-31.494041274526566
1.1959798994974875,0.0,0.0,0.6274674931310092,0.0,0.0,1.0565885921238316,0.0,0.0,2.2891846313445066,0.0,0.0,-33.82074670125366,0.0,0.0,-8.17998346134653
1.206030150753769,0.0,0.0,0.6382510774203176,0.0,0.0,1.077985835839416,0.0,0.0,1.9475158372869257,0.0,0.0,-33.79360802016037,0.0,0.0,13.244750287981356
1.2160804020100502,0.0,0.0,0.6492333789769174,0.0,0.0,1.0959368652884045,0.0,0.0,1.6071829752332631,0.0,0.0,-33.55928840940383,0.0,0.0,32.85405411338027
1.2261306532663316,0.0,0.0,0.6603796905145424,0.0,0.0,1.1104654354134398,0.0,0.0,1.2701874082568656,0.0,0.0,-33.13575750329583,0.0,0.0,50.72059589184054
1.236180904522613,0.0,0.0,0.6716556437405846,0.0,0.0,1.1216146126506346,0.0,0.0,0.9383526742871486,0.0,0.0,-32.540257110435526,0.0,0.0,66.9158172374179
1.2462311557788945,0.0,0.0,0.6830273954743832,0.0,0.0,1.1294450156355378,0.0,0.0,0.6133317753264483,0.0,0.0,-31.78931360020429,0.0,0.0,81.50993350123557
1.256281407035176,0.0,0.0,0.694461796364603,0.0,0.0,1.1340331289056573,0.0,0.0,0.29661434155071925,0.0,0.0,-30.89875028925953,0.0,0.0,94.57193377148297
1.2663316582914572,0.0,0.0,0.705926542936652,0.0,0.0,1.135469688335738,0.0,0.0,-0.010466329705863302,0.0,0.0,-29.88369982802913,0.0,0.0,106.16958087341581
1.2763819095477387,0.0,0.0,0.7173903136883353,0.0,0.0,1.1338581370419845,0.0,0.0,-0.3067263600823539,0.0,0.0,-28.758616587205907,0.0,0.0,116.36941136935667
1.2864321608040201,0.0,0.0,0.7288228899391649,0.0,0.0,1.1293131504914582,0.0,0.0,-0.5911245014387014,0.0,0.0,-27.53728904424137,0.0,0.0,125.23673555869388
1.2964824120603016,0.0,0.0,0.7401952621259871,0.0,0.0,1.1219592295528127,0.0,0.0,-0.8627554722193511,0.0,0.0,-26.232852169840765,0.0,0.0,132.83563747788386
1.306532663316583,0.0,0.0,0.7514797222248197,0.0,0.0,1.1119293602245996,0.0,0.0,-1.1208434189331482,0.0,0.0,-24.85779981445653,0.0,0.0,139.22897490044735
1.3165829145728642,0.0,0.0,0.7626499429660294,0.0,0.0,1.0993637387773287,0.0,0.0,-1.364735502749178,0.0,0.0,-23.423997094783214,0.0,0.0,144.4783793369736
1.3266331658291457,0.0,0.0,0.7736810444972076,0.0,0.0,1.0844085610454905,0.0,0.0,-1.5938956112087908,0.0,0.0,-21.94269278025148,0.0,0.0,148.64425603511728
1.3366834170854272,0.0,0.0,0.7845496491353441,0.0,0.0,1.0672148746057362,0.0,0.0,-1.8078981950537398,0.0,0.0,-20.42453167952237,0.0,0.0,151.78578397959953
1.3467336683417086,0.0,0.0,0.7952339248371301,0.0,0.0,1.047937492577421,0.0,0.0,-2.0064222301703594,0.0,0.0,-18.87956702698159,0.0,0.0,153.96091589220853
1.35678391959799,0.0,0.0,0.8057136180034523,0.0,0.0,1.0267339677817116,0.0,0.0,-2.1892453046498987,0.0,0.0,-17.317272869233975,0.0,0.0,155.22637823179872
1.3668341708542713,0.0,0.0,0.815970076221382,0.0,0.0,1.0037636259954594,0.0,0.0,-2.3562378309649974,0.0,0.0,-15.746556451597314,0.0,0.0,155.63767119429122
1.3768844221105527,0.0,0.0,0.8259862615341907,0.0,0.0,0.979186657036035,0.0,0.0,-2.5073573832621165,0.0,0.0,-14.17577060459735,0.0,0.0,155.24906871267268
1.3869346733668342,0.0,0.0,0.8357467548171592,0.0,0.0,0.9531632624133273,0.0,0.0,-2.642643159770296,0.0,0.0,-12.612726130461315,0.0,0.0,154.1136184569981
1.3969849246231156,0.0,0.0,0.8452377518241876,0.0,0.0,0.9258528582851134,0.0,0.0,-2.762210570325751,0.0,0.0,-11.064704189612558,0.0,0.0,152.28314183438732
1.407035175879397,0.0,0.0,0.8544470514574389,0.0,0.0,0.8974133324519955,0.0,0.0,-2.866245949012848,0.0,0.0,-9.538468687165038,0.0,0.0,149.80823398902717
1.4170854271356783,0.0,0.0,0.8633640367994876,0.0,0.0,0.8680003541281047,0.0,0.0,-2.9550013919209244,0.0,0.0,-8.040278659416856,0.0,0.0,146.73826380217167
1.4271356783919598,0.0,0.0,0.8719796494346833,0.0,0.0,0.8377667352237743,0.0,0.0,-3.028789720017472,0.0,0.0,-6.575900660345718,0.0,0.0,143.12137389213967
1.4371859296482412,0.0,0.0,0.8802863575736656,0.0,0.0,0.8068618418763921,0.0,0.0,-3.0879795671371326,0.0,0.0,-5.150621148102127,0.0,0.0,139.00448061431914
1.4472361809045227,0.0,0.0,0.8882781184822035,0.0,0.0,0.7754310549656035,0.0,0.0,-3.132990593087107,0.0,0.0,-3.7692588715041495,0.0,0.0,134.43327406116273
1.4572864321608041,0.0,0.0,0.8959503357027728,0.0,0.0,0.7436152783491183,0.0,0.0,-3.1642888218684373,0.0,0.0,-2.4361772565311846,0.0,0.0,129.45221806218882
1.4673366834170853,0.0,0.0,0.9032998115445147,0.0,0.0,0.7115504935552651,0.0,0.0,-3.1823821050134122,0.0,0.0,-1.1552967928193887,0.0,0.0,124.10455018398389
1.4773869346733668,0.0,0.0,0.9103246953044416,0.0,0.0,0.6793673596685162,0.0,0.0,-3.1878157100392803,0.0,0.0,0.06989257984506381,0.0,0.0,118.4322817302012
1.4874371859296482,0.0,0.0,0.9170244276700233,0.0,0.0,0.6471908571442292,0.0,0.0,-3.1811680340178006,0.0,0.0,1.2363190850316848,0.0,0.0,112.47619774155879
1.4974874371859297,0.0,0.0,0.9233996817404767,0.0,0.0,0.6151399742887158,0.0,0.0,-3.163046442261065,0.0,0.0,2.3413167231707384,0.0,0.0,106.27585699584284
1.5075376884422111,0.0,0.0,0.929452301091356,0.0,0.0,0.5833274351409161,0.0,0.0,-3.1340832321233525,0.0,0.0,3.3826128850594657,0.0,0.0,99.86959200790511
1.5175879396984926,0.0,0.0,0.9351852352942549,0.0,0.0,0.5518594674918451,0.0,0.0,-3.094931721919181,0.0,0.0,4.358315965368014,0.0,0.0,93.29450902966329
1.5276381909547738,0.0,0.0,0.9406024732906568,0.0,0.0,0.5208356097780176,0.0,0.0,-3.0462624649573473,0.0,0.0,5.266902976144166,0.0,0.0,86.58648805010404
1.5376884422110553,0.0,0.0,0.9457089750062462,0.0,0.0,0.4903485555850366,0.0,0.0,-2.988759588690964,0.0,0.0,6.107207160319859,0.0,0.0,79.7801827952789
1.5477386934673367,0.0,0.0,0.950510601579161,0.0,0.0,0.4604840344976272,0.0,0.0,-2.923117258984113,0.0,0.0,6.8784056052179,0.0,0.0,72.90902072830335
1.5577889447236182,0.0,0.0,0.9550140445629726,0.0,0.0,0.43132072803214294,0.0,0.0,-2.850036269493871,0.0,0.0,7.580006856055029,0.0,0.0,66.00520304936401
1.5678391959798996,0.0,0.0,0.9592267544523554,0.0,0.0,0.40293021938798884,0.0,0.0,-2.7702207561691345,0.0,0.0,8.211838529450006,0.0,0.0,59.099704695710784
1.5778894472361809,0.0,0.0,0.9631568688666896,0.0,0.0,0.3753769757538942,0.0,0.0,-2.684375036864802,0.0,0.0,8.774034926928202,0.0,0.0,52.22227434166473
1.5879396984924623,0.0,0.0,0.9668131407140249,0.0,0.0,0.348718361905455,0.0,0.0,-2.5932005760730608,0.0,0.0,9.267024648427679,0.0,0.0,45.40143439860594
1.5979899497487438,0.0,0.0,0.9702048666451228,0.0,0.0,0.32300468383006975,0.0,0.0,-2.49739307476964,0.0,0.0,9.691518205805508,0.0,0.0,38.664481014984176
1.6080402010050252,0.0,0.0,0.9733418160944818,0.0,0.0,0.29827926111541714,0.0,0.0,-2.3976396853771202,0.0,0.0,10.048495636341173,0.0,0.0,32.0374840763202
1.6180904522613067,0.0,0.0,0.9762341611925132,0.0,0.0,0.2745785268377188,0.0,0.0,-2.294616351843711,0.0,0.0,10.33919411624592,0.0,0.0,25.545287205196587
1.6281407035175879,0.0,0.0,0.9788924078202605,0.0,0.0,0.2519321536860575,0.0,0.0,-2.18898527483854,0.0,0.0,10.565095574165554,0.0,0.0,19.21150776126092
1.6381909547738693,0.0,0.0,0.9813273280652821,0.0,0.0,0.2303632050587907,0.0,0.0,-2.081392502062755,0.0,0.0,10.72791430468682,0.0,0.0,13.058536841232353
1.6482412060301508,0.0,0.0,0.9835498943245754,0.0,0.0,0.2098883098684452,0.0,0.0,-1.9724656436769266,0.0,0.0,10.829584581844045,0.0,0.0,7.107539278893228
1.6582914572864322,0.0,0.0,0.9855712152876042,0.0,0.0,0.19051785979115188,0.0,0.0,-1.8628117128445663,0.0,0.0,10.872248272624034,0.0,0.0,1.378453645092236
1.6683417085427137,0.0,0.0,0.9874024740198121,0.0,0.0,0.17225622769686688,0.0,0.0,-1.7530150913914078,0.0,0.0,10.85824245047175,0.0,0.0,-4.110007752252727
1.678391959798995,0.0,0.0,0.9890548683541349,0.0,0.0,0.1551020059966266,0.0,0.0,-1.6436356205813265,0.0,0.0,10.790087008797116,0.0,0.0,-9.340358868160365
1.6884422110552764,0.0,0.0,0.9905395537853334,0.0,0.0,0.13904826364295508,0.0,0.0,-1.5352068170078859,0.0,0.0,10.67047227447867,0.0,0.0,-14.296339920581431
1.6984924623115578,0.0,0.0,0.9918675890491929,0.0,0.0,0.12408282051975439,0.0,0.0,-1.4282342136024013,0.0,0.0,10.502246621371114,0.0,0.0,-18.962917390399525
1.7085427135678393,0.0,0.0,0.9930498845558375,0.0,0.0,0.11018853795761308,0.0,0.0,-1.3231938257577127,0.0,0.0,10.288404083811173,0.0,0.0,-23.32628402143405
1.7185929648241207,0.0,0.0,0.9940971538336498,0.0,0.0,0.09734362411112762,0.0,0.0,-1.2205307425682292,0.0,0.0,10.032071970121422,0.0,0.0,-27.373858820433952
1.728643216080402,0.0,0.0,0.9950198681275852,0.0,0.0,0.08552195293406051,0.0,0.0,-1.1206578431862937,0.0,0.0,9.736498476118413,0.0,0.0,-31.09428705708615
1.7386934673366834,0.0,0.0,0.995828214282781,0.0,0.0,0.07469339548877985,0.0,0.0,-1.0239546382940858,0.0,0.0,9.40504029861492,0.0,0.0,-34.47744026400915
1.7487437185929648,0.0,0.0,0.996532056031718,0.0,0.0,0.06482416232610788,0.0,0.0,-0.9307662366926692,0.0,0.0,9.041150248931558,0.0,0.0,-37.514416236754414
1.7587939698492463,0.0,0.0,0.997140898790349,0.0,0.0,0.05587715567168061,0.0,0.0,-0.8414024370055593,0.0,0.0,8.648364866394985,0.0,0.0,-40.197539033805015
1.7688442211055277,0.0,0.0,0.9976638580558866,0.0,0.0,0.047812330155216465,0.0,0.0,-0.756136944500156,0.0,0.0,8.230292031850126,0.0,0.0,-42.52035897658334
1.778894472361809,0.0,0.0,0.9981096314861353,0.0,0.0,0.040587060818684684,0.0,0.0,-0.6752067130235702,0.0,0.0,7.790598581162271,0.0,0.0,-44.47765264943973
1.7889447236180904,0.0,0.0,0.9984864747275219,0.0,0.0,0.03415651713989565,0.0,0.0,-0.5988114120563353,0.0,0.0,7.332997918723947,0.0,0.0,-46.06542289966069
1.7989949748743719,0.0,0.0,0.9988021810462184,0.0,0.0,0.028474041807074357,0.0,0.0,-0.5271130188803781,0.0,0.0,6.861237630959465,0.0,0.0,-47.28089883746452
1.8090452261306533,0.0,0.0,0.9990640648039139,0.0,0.0,0.02349153298157791,0.0,0.0,-0.46023553586518773,0.0,0.0,6.3790870998340665,0.0,0.0,-48.12253583600659
1.8190954773869348,0.0,0.0,0.9992789488071705,0.0,0.0,0.0191598287839172,0.0,0.0,-0.39826483286729086,0.0,0.0,5.8903251163557115,0.0,0.0,-48.59001553137068
1.829145728643216,0.0,0.0,0.9994531555463344,0.0,0.0,0.015429092740302686,0.0,0.0,-0.3412486147491407,0.0,0.0,5.398727494082323,0.0,0.0,-48.684245822576486
1.8391959798994975,0.0,0.0,0.9995925023274463,0.0,0.0,0.012249198924676463,0.0,0.0,-0.2891965140108539,0.0,0.0,4.908054682625618,0.0,0.0,-48.40736087157893
1.849246231155779,0.0,0.0,0.9997023002875077,0.0,0.0,0.009570115534149437,0.0,0.0,-0.24208030854155993,0.0,0.0,4.422039381163984,0.0,0.0,-47.76272110326681
1.8592964824120604,0.0,0.0,0.9997873572711699,0.0,0.0,0.0073422856319336205,0.0,0.0,-0.19983426448258967,0.0,0.0,3.944374151936813,0.0,0.0,-46.754913205453704
1.8693467336683418,0.0,0.0,0.9998519845335438,0.0,0.0,0.0055170037960969864,0.0,0.0,-0.1623556042104468,0.0,0.0,3.478699033760847,0.0,0.0,-45.38975012890069
1.879396984924623,0.0,0.0,0.9999000072216027,0.0,0.0,0.004046787408592323,0.0,0.0,-0.12950509943522093,0.0,0.0,3.0285891555296303,0.0,0.0,-43.67427108728998
1.8894472361809045,0.0,0.0,0.999934778573639,0.0,0.0,0.0028857413219043337,0.0,0.0,-0.10110778941229626,0.0,0.0,2.597542349720243,0.0,0.0,-41.61674155724131
1.899497487437186,0.0,0.0,0.9999591977633473,0.0,0.0,0.00198991463905962,0.0,0.0,-0.07695382427461084,0.0,0.0,2.188966765902478,0.0,0.0,-39.22665327831692
1.9095477386934674,0.0,0.0,0.9999757313027215,0.0,0.0,0.001317648343032829,0.0,0.0,-0.05679943347713845,0.0,0.0,1.8061684842390378,0.0,0.0,-36.51472425299562
1.9195979899497488,0.0,0.0,0.9999864379047101,0.0,0.0,0.0008299125122857021,0.0,0.0,-0.04036801935913559,0.0,0.0,1.4523391289953906,0.0,0.0,-33.49289874670558
1.92964824120603,0.0,0.0,0.9999929966942589,0.0,0.0,0.0004906318580335522,0.0,0.0,-0.02735137582320135,0.0,0.0,1.130543482043663,0.0,0.0,-30.174347287798355
1.9396984924623115,0.0,0.0,0.9999967386432642,0.0,0.0,0.00026699831992083034,0.0,0.0,-0.01741103212880546,0.0,0.0,0.843707096369144,0.0,0.0,-26.573466667561206
1.949748743718593,0.0,0.0,0.9999986810923804,0.0,0.0,0.0001297694561372964,0.0,0.0,-0.010179721803680764,0.0,0.0,0.5946039095753122,0.0,0.0,-22.705879940218892
1.9597989949748744,0.0,0.0,0.9999995652098499,0.0,0.0,5.3551363969006616e-05,0.0,0.0,-0.005262976668902297,0.0,0.0,0.3858438573930698,0.0,0.0,-18.588436422925042
1.9698492462311559,0.0,0.0,0.9999998962246082,0.0,0.0,1.706486725083778e-05,0.0,0.0,-0.002240845982726114,0.0,0.0,0.21986048717747053,0.0,0.0,-14.239211695762606
1.9798994974874373,0.0,0.0,0.9999999862583362,0.0,0.0,3.39370709667719e-06,0.0,0.0,-0.0006697406992657307,0.0,0.0,0.09889857142547953,0.0,0.0,-9.677507601765683
1.9899497487437185,0.0,0.0,0.9999999995682853,0.0,0.0,2.1347122469705937e-07,0.0,0.0,-8.440284310040624e-05,0.0,0.0,0.025001721271223687,0.0,0.0,-4.923852246879505
2.0,0.0,0.0,0.9999999999999867,0.0,0.0,-2.2026824808563106e-13,0.0,0.0,-1.1368683772161603e-13,0.0,0.0,-1.5916157281026244e-12,0.0,0.0,0.0
